PDS_VERSION_ID         = PDS3
RECORD_TYPE            = STREAM
OBJECT                 = TEXT
  PUBLICATION_DATE     = 2014-04-25
  INTERCHANGE_FORMAT   = ASCII
  NOTE                 = "System transmission vs. wavelength."
END_OBJECT             = TEXT
END
    
The systrans directory contains the non-wavelength-integrated system 
transmission values (QE*optics*filter1*filter2) for each filter combination. 
The naming convention for these files is as follows:

<camera><filter 1><filter 2>_systrans.tab

where <camera> is "issna" or "isswa," and <filter 1> and <filter 2> represent
the filter names. For polarized filter combinations, values are given for the
parallel orientation of the filter (full transmission), with values for the 
perpendicular (blocking) orientation provided in files with subscript 
"_b_systrans.tab". 

Columns in systrans files are as follows:

 1st column: Wavelength (nm)  
 2nd column: Transmitted Flux
 3rd column: Transmitted Flux * Solar Flux (phot per cm^2-s-angstrom at 1 AU)

The solar spectrum used for this calculation is provided in solarflux.tab.

\begindata
       619.00000  1.15856e-10      6165.87
       619.10000  1.15856e-10      6161.23
       619.20000  1.15856e-10      6158.92
       619.30000  1.15856e-10      6157.76
       619.40000  1.15856e-10      6157.76
       619.50000  2.02397e-10      10761.5
       619.60000  2.02397e-10      10799.9
       619.70000  2.02397e-10      10834.3
       619.80000  2.02397e-10      10864.7
       619.90000  2.02397e-10      10891.0
       620.00000  2.02397e-10      10911.2
       620.10000  2.02397e-10      10927.4
       620.20000  2.02397e-10      10939.6
       620.30000  2.02397e-10      10947.7
       620.40000  2.02397e-10      10949.7
       620.50000  2.71743e-10      14701.3
       620.60000  2.71743e-10      14641.5
       620.70000  2.71743e-10      14584.4
       620.80000  2.71743e-10      14535.5
       620.90000  2.71743e-10      14492.0
       621.00000  2.71743e-10      14454.0
       621.10000  2.71743e-10      14421.4
       621.20000  2.71743e-10      14396.9
       621.30000  2.71394e-10      14356.7
       621.40000  2.71394e-10      14340.5
       621.50000  3.57453e-10      18877.1
       621.60000  3.57453e-10      18941.4
       621.70000  3.57453e-10      18998.6
       621.80000  3.57453e-10      19045.1
       621.90000  3.57453e-10      19088.0
       622.00000  3.57453e-10      19120.2
       622.10000  3.57453e-10      19145.2
       622.20000  3.57453e-10      19159.5
       622.30000  3.57453e-10      19170.2
       622.40000  3.57453e-10      19170.2
       622.50000  5.73553e-10      30748.2
       622.60000  5.73553e-10      30725.2
       622.70000  5.73553e-10      30690.8
       622.80000  5.73553e-10      30645.0
       622.90000  5.73553e-10      30581.9
       623.00000  5.73553e-10      30513.0
       623.10000  5.73553e-10      30427.0
       623.20000  5.73553e-10      30323.8
       623.30000  5.73553e-10      30214.8
       623.40000  5.73553e-10      30088.6
       623.50000  7.67960e-10      40110.5
       623.60000  7.67960e-10      40102.9
       623.70000  7.67960e-10      40102.9
       623.80000  7.66306e-10      40001.2
       623.90000  7.66306e-10      39993.5
       624.00000  7.66306e-10      39978.2
       624.10000  7.66306e-10      39955.2
       624.20000  7.66306e-10      39932.2
       624.30000  7.66306e-10      39909.2
       624.40000  7.66306e-10      39878.6
       624.50000  1.39314e-09      72443.4
       624.60000  1.39314e-09      72164.8
       624.70000  1.39314e-09      71941.9
       624.80000  1.39314e-09      71746.9
       624.90000  1.39314e-09      71593.6
       625.00000  1.39314e-09      71482.2
       625.10000  1.39314e-09      71412.5
       625.20000  1.39314e-09      71370.7
       625.30000  1.39314e-09      71384.6
       625.40000  1.39314e-09      71426.4
       625.50000  5.46356e-09      280444.
       625.60000  5.46356e-09      280881.
       625.70000  5.46356e-09      281537.
       625.80000  5.46356e-09      282302.
       625.90000  5.46356e-09      283231.
       626.00000  5.46356e-09      284323.
       626.10000  5.46356e-09      285580.
       626.20000  5.46356e-09      286946.
       626.30000  5.45494e-09      288075.
       626.40000  5.45494e-09      289766.
       626.50000  1.49836e-08      800875.
       626.60000  1.49836e-08      801025.
       626.70000  1.49836e-08      801175.
       626.80000  1.49836e-08      801325.
       626.90000  1.49836e-08      801475.
       627.00000  1.49836e-08      801625.
       627.10000  1.49836e-08      801774.
       627.20000  1.49836e-08      801774.
       627.30000  1.49836e-08      801924.
       627.40000  1.49836e-08      802074.
       627.50000  1.47037e-08      787236.
       627.60000  1.47037e-08      787824.
       627.70000  1.47037e-08      788266.
       627.80000  1.47037e-08      788560.
       627.90000  1.47037e-08      788854.
       628.00000  1.47037e-08      789001.
       628.10000  1.47037e-08      789148.
       628.20000  1.47037e-08      789148.
       628.30000  1.47037e-08      789001.
       628.40000  1.47037e-08      788854.
       628.50000  5.17090e-08  2.77316e+06
       628.60000  5.17090e-08  2.77160e+06
       628.70000  5.17090e-08  2.77005e+06
       628.80000  5.15997e-08  2.76213e+06
       628.90000  5.15997e-08  2.75955e+06
       629.00000  5.15997e-08  2.75697e+06
       629.10000  5.15997e-08  2.75388e+06
       629.20000  5.15997e-08  2.75078e+06
       629.30000  5.15997e-08  2.74717e+06
       629.40000  5.15997e-08  2.74304e+06
       629.50000  5.50256e-08  2.92076e+06
       629.60000  5.50256e-08  2.91471e+06
       629.70000  5.50256e-08  2.90866e+06
       629.80000  5.50256e-08  2.90315e+06
       629.90000  5.50256e-08  2.89820e+06
       630.00000  5.50256e-08  2.89325e+06
       630.10000  5.50256e-08  2.88830e+06
       630.20000  5.50256e-08  2.88444e+06
       630.30000  5.50256e-08  2.88004e+06
       630.40000  5.50256e-08  2.87674e+06
       630.50000  6.30224e-08  3.29103e+06
       630.60000  6.30224e-08  3.28725e+06
       630.70000  6.30224e-08  3.28410e+06
       630.80000  6.30224e-08  3.28157e+06
       630.90000  6.30224e-08  3.27905e+06
       631.00000  6.30224e-08  3.27716e+06
       631.10000  6.30224e-08  3.27905e+06
       631.20000  6.30224e-08  3.28094e+06
       631.30000  6.30193e-08  3.28330e+06
       631.40000  6.30193e-08  3.28520e+06
       631.50000  9.56661e-09      498994.
       631.60000  9.56661e-09      499281.
       631.70000  9.56661e-09      499568.
       631.80000  9.56661e-09      499759.
       631.90000  9.56661e-09      500046.
       632.00000  9.56661e-09      500333.
       632.10000  9.56661e-09      500620.
       632.20000  9.56661e-09      500812.
       632.30000  9.56661e-09      501099.
       632.40000  9.56661e-09      501386.
       632.50000  1.48747e-08      779878.
       632.60000  1.48747e-08      780175.
       632.70000  1.48747e-08      780622.
       632.80000  1.48747e-08      780919.
       632.90000  1.48747e-08      781217.
       633.00000  1.48747e-08      781663.
       633.10000  1.48747e-08      781960.
       633.20000  1.48747e-08      782258.
       633.30000  1.48747e-08      782555.
       633.40000  1.48747e-08      782853.
       633.50000  8.76943e-08  4.61710e+06
       633.60000  8.76943e-08  4.61886e+06
       633.70000  8.76943e-08  4.62061e+06
       633.80000  8.76808e-08  4.62078e+06
       633.90000  8.76808e-08  4.62253e+06
       634.00000  8.76808e-08  4.62429e+06
       634.10000  8.76808e-08  4.62516e+06
       634.20000  8.76808e-08  4.62692e+06
       634.30000  8.76808e-08  4.62780e+06
       634.40000  8.76808e-08  4.62955e+06
       634.50000  7.68078e-09      405622.
       634.60000  7.68078e-09      405699.
       634.70000  7.68078e-09      405853.
       634.80000  7.68078e-09      405929.
       634.90000  7.68078e-09      406006.
       635.00000  7.68078e-09      406083.
       635.10000  7.68078e-09      406160.
       635.20000  7.68078e-09      406160.
       635.30000  7.68078e-09      406237.
       635.40000  7.68078e-09      406237.
       635.50000  1.92247e-08  1.01699e+06
       635.60000  1.92247e-08  1.01718e+06
       635.70000  1.92247e-08  1.01718e+06
       635.80000  1.92247e-08  1.01737e+06
       635.90000  1.92247e-08  1.01737e+06
       636.00000  1.92247e-08  1.01756e+06
       636.10000  1.92247e-08  1.01756e+06
       636.20000  1.92247e-08  1.01776e+06
       636.30000  1.91108e-08  1.01172e+06
       636.40000  1.91108e-08  1.01192e+06
       636.50000  6.18255e-08  3.27366e+06
       636.60000  6.18255e-08  3.27428e+06
       636.70000  6.18255e-08  3.27428e+06
       636.80000  6.18255e-08  3.27490e+06
       636.90000  6.18255e-08  3.27490e+06
       637.00000  6.18255e-08  3.27490e+06
       637.10000  6.18255e-08  3.27551e+06
       637.20000  6.18255e-08  3.27551e+06
       637.30000  6.18255e-08  3.27613e+06
       637.40000  6.18255e-08  3.27613e+06
       637.50000  8.90724e-08  4.71994e+06
       637.60000  8.90724e-08  4.72084e+06
       637.70000  8.90724e-08  4.72084e+06
       637.80000  8.90724e-08  4.72173e+06
       637.90000  8.90724e-08  4.72173e+06
       638.00000  8.90724e-08  4.72173e+06
       638.10000  8.90724e-08  4.72262e+06
       638.20000  8.90724e-08  4.72262e+06
       638.30000  8.90724e-08  4.72262e+06
       638.40000  8.90724e-08  4.72351e+06
       638.50000  1.88870e-08  1.00158e+06
       638.60000  1.88870e-08  1.00158e+06
       638.70000  1.88870e-08  1.00177e+06
       638.80000  1.87631e-08      995197.
       638.90000  1.87631e-08      995197.
       639.00000  1.87631e-08      995197.
       639.10000  1.87631e-08      993696.
       639.20000  1.87631e-08      992195.
       639.30000  1.87631e-08      990694.
       639.40000  1.87631e-08      989381.
       639.50000  4.02608e-08  2.11973e+06
       639.60000  4.02608e-08  2.11731e+06
       639.70000  4.02608e-08  2.11450e+06
       639.80000  4.02608e-08  2.11208e+06
       639.90000  4.02608e-08  2.11007e+06
       640.00000  4.02608e-08  2.10765e+06
       640.10000  4.02608e-08  2.10564e+06
       640.20000  4.02608e-08  2.10403e+06
       640.30000  4.02608e-08  2.10242e+06
       640.40000  4.02608e-08  2.10081e+06
       640.50000  2.87363e-08  1.49831e+06
       640.60000  2.87363e-08  1.49745e+06
       640.70000  2.87363e-08  1.49659e+06
       640.80000  2.87363e-08  1.49601e+06
       640.90000  2.87363e-08  1.49515e+06
       641.00000  2.87363e-08  1.49486e+06
       641.10000  2.87363e-08  1.49544e+06
       641.20000  2.87363e-08  1.49601e+06
       641.30000  2.85419e-08  1.48646e+06
       641.40000  2.85419e-08  1.48703e+06
       641.50000  2.26394e-08  1.17996e+06
       641.60000  2.26394e-08  1.18042e+06
       641.70000  2.26394e-08  1.18087e+06
       641.80000  2.26394e-08  1.18132e+06
       641.90000  2.26394e-08  1.18178e+06
       642.00000  2.26394e-08  1.18223e+06
       642.10000  2.26394e-08  1.18245e+06
       642.20000  2.26394e-08  1.18291e+06
       642.30000  2.26394e-08  1.18336e+06
       642.40000  2.26394e-08  1.18381e+06
       642.50000  1.19734e-08      626328.
       642.60000  1.19734e-08      626568.
       642.70000  1.19734e-08      626807.
       642.80000  1.19734e-08      627046.
       642.90000  1.19734e-08      627286.
       643.00000  1.19734e-08      627525.
       643.10000  1.19734e-08      627645.
       643.20000  1.19734e-08      627885.
       643.30000  1.19734e-08      628124.
       643.40000  1.19734e-08      628364.
       643.50000  3.97002e-09      208426.
       643.60000  3.97002e-09      208506.
       643.70000  3.97002e-09      208545.
       643.80000  3.96473e-09      208347.
       643.90000  3.96473e-09      208426.
       644.00000  3.96473e-09      208505.
       644.10000  3.96473e-09      208585.
       644.20000  3.96473e-09      208624.
       644.30000  3.96473e-09      208704.
       644.40000  3.96473e-09      208783.
       644.50000  2.54065e-11      1338.41
       644.60000  2.54065e-11      1338.67
       644.70000  2.54065e-11      1339.17
       644.80000  2.54065e-11      1339.68
       644.90000  2.54065e-11      1340.19
       645.00000  2.54065e-11      1340.45
       645.10000  2.54065e-11      1340.19
       645.20000  2.54065e-11      1339.68
       645.30000  2.54065e-11      1339.43
       645.40000  2.54065e-11      1338.92
       645.50000  1.40299e-09      73895.5
       645.60000  1.40299e-09      73867.4
       645.70000  1.40299e-09      73839.4
       645.80000  1.40299e-09      73797.3
       645.90000  1.40299e-09      73755.2
       646.00000  1.40299e-09      73713.1
       646.10000  1.40299e-09      73671.0
       646.20000  1.40299e-09      73628.9
       646.30000  1.40213e-09      73527.7
       646.40000  1.40213e-09      73471.6
       646.50000  1.49947e-10      7852.73
       646.60000  1.49947e-10      7845.23
       646.70000  1.49947e-10      7839.24
       646.80000  1.49947e-10      7833.24
       646.90000  1.49947e-10      7825.74
       647.00000  1.49947e-10      7819.74
       647.10000  1.49947e-10      7798.75
       647.20000  1.49947e-10      7779.26
       647.30000  1.49947e-10      7761.26
       647.40000  1.49947e-10      7743.27
       647.50000  4.17832e-10      21530.9
       647.60000  4.17832e-10      21493.3
       647.70000  4.17832e-10      21451.5
       647.80000  4.17832e-10      21418.1
       647.90000  4.17832e-10      21384.7
       648.00000  4.17832e-10      21355.4
       648.10000  4.17832e-10      21330.3
       648.20000  4.17832e-10      21309.4
       648.30000  4.17832e-10      21288.6
       648.40000  4.17832e-10      21271.8
       648.50000  4.20688e-10      21404.6
       648.60000  4.20688e-10      21396.2
       648.70000  4.20688e-10      21387.8
       648.80000  4.21123e-10      21405.7
       648.90000  4.21123e-10      21405.7
       649.00000  4.21123e-10      21409.9
       649.10000  4.21123e-10      21414.1
       649.20000  4.21123e-10      21426.7
       649.30000  4.21123e-10      21435.2
       649.40000  4.21123e-10      21452.0
       649.50000  8.48733e-11      4327.69
       649.60000  8.48733e-11      4331.94
       649.70000  8.48733e-11      4337.03
       649.80000  8.48733e-11      4342.97
       649.90000  8.48733e-11      4348.91
       650.00000  8.48733e-11      4355.70
       650.10000  8.48733e-11      4363.34
       650.20000  8.48733e-11      4371.83
       650.30000  8.48733e-11      4381.16
       650.40000  8.48733e-11      4390.50
       650.50000  1.38203e-10      7165.80
       650.60000  1.38203e-10      7183.77
       650.70000  1.38203e-10      7201.74
       650.80000  1.38203e-10      7222.47
       650.90000  1.38203e-10      7243.20
       651.00000  1.38203e-10      7265.31
       651.10000  1.38203e-10      7270.84
       651.20000  1.38203e-10      7276.37
       651.30000  1.38029e-10      7271.38
       651.40000  1.38029e-10      7275.52
       651.50000  1.23130e-10      6493.88
       651.60000  1.23130e-10      6495.11
       651.70000  1.23130e-10      6497.58
       651.80000  1.23130e-10      6498.81
       651.90000  1.23130e-10      6498.81
       652.00000  1.23130e-10      6498.81
       652.10000  1.23130e-10      6497.58
       652.20000  1.23130e-10      6496.34
       652.30000  1.23130e-10      6495.11
       652.40000  1.23130e-10      6492.65
       652.50000  1.04181e-10      5490.35
       652.60000  1.04181e-10      5487.22
       652.70000  1.04181e-10      5484.10
       652.80000  1.04181e-10      5478.89
       652.90000  1.04181e-10      5474.72
       653.00000  1.04181e-10      5469.51
       653.10000  1.04181e-10      5465.34
       653.20000  1.04181e-10      5461.18
       653.30000  1.04181e-10      5454.93
       653.40000  1.04181e-10      5448.67
       653.50000  3.67548e-11      1920.07
       653.60000  3.67548e-11      1917.50
       653.70000  3.67548e-11      1914.56
       653.80000  3.67100e-11      1908.92
       653.90000  3.67100e-11      1905.62
       654.00000  3.67100e-11      1901.95
       654.10000  3.67100e-11      1898.28
       654.20000  3.67100e-11      1893.87
       654.30000  3.67100e-11      1889.46
       654.40000  3.67100e-11      1885.06
       654.50000  3.54605e-12      181.628
       654.60000  3.54605e-12      181.132
       654.70000  3.54605e-12      180.600
       654.80000  3.54605e-12      180.068
       654.90000  3.54605e-12      179.501
       655.00000  3.54605e-12      178.898
       655.10000  3.54605e-12      177.196
       655.20000  3.54605e-12      175.565
       655.30000  3.54605e-12      174.040
       655.40000  3.54605e-12      172.621
       655.50000  3.64891e-11      1762.42
       655.60000  3.64891e-11      1749.65
       655.70000  3.64891e-11      1737.61
       655.80000  3.64891e-11      1726.66
       655.90000  3.64891e-11      1716.45
       656.00000  3.64891e-11      1707.32
       656.10000  3.64891e-11      1699.30
       656.20000  3.64891e-11      1692.00
       656.30000  3.64613e-11      1684.51
       656.40000  3.64613e-11      1679.04
       656.50000  5.23558e-12      240.470
       656.60000  5.23558e-12      239.999
       656.70000  5.23558e-12      239.633
       656.80000  5.23558e-12      239.423
       656.90000  5.23558e-12      239.318
       657.00000  5.23558e-12      239.371
       657.10000  5.23558e-12      241.413
       657.20000  5.23558e-12      243.402
       657.30000  5.23558e-12      245.339
       657.40000  5.23558e-12      247.224
       657.50000  2.77628e-12      132.040
       657.60000  2.77628e-12      132.984
       657.70000  2.77628e-12      133.872
       657.80000  2.77628e-12      134.733
       657.90000  2.77628e-12      135.538
       658.00000  2.77628e-12      136.343
       658.10000  2.77628e-12      137.120
       658.20000  2.77628e-12      137.842
       658.30000  2.77628e-12      138.536
       658.40000  2.77628e-12      139.203
       658.50000  2.08372e-11      1049.36
       658.60000  2.08372e-11      1053.95
       658.70000  2.08372e-11      1058.11
       658.80000  2.08156e-11      1061.18
       658.90000  2.08156e-11      1064.93
       659.00000  2.08156e-11      1068.26
       659.10000  2.08156e-11      1071.59
       659.20000  2.08156e-11      1074.71
       659.30000  2.08156e-11      1077.41
       659.40000  2.08156e-11      1079.91
       659.50000  6.04088e-12      314.066
       659.60000  6.04088e-12      314.670
       659.70000  6.04088e-12      315.153
       659.80000  6.04088e-12      315.636
       659.90000  6.04088e-12      315.999
       660.00000  6.04088e-12      316.301
       660.10000  6.04088e-12      316.542
       660.20000  6.04088e-12      316.663
       660.30000  6.04088e-12      316.784
       660.40000  6.04088e-12      316.784
       660.50000  1.59393e-12      83.5698
       660.60000  1.59393e-12      83.5379
       660.70000  1.59393e-12      83.4901
       660.80000  1.59393e-12      83.4104
       660.90000  1.59393e-12      83.3307
       661.00000  1.59393e-12      83.2191
       661.10000  1.59393e-12      83.1713
       661.20000  1.59393e-12      83.1075
       661.30000  1.58997e-12      82.8535
       661.40000  1.58997e-12      82.8058
       661.50000  5.53448e-12      288.070
       661.60000  5.53448e-12      287.959
       661.70000  5.53448e-12      287.793
       661.80000  5.53448e-12      287.682
       661.90000  5.53448e-12      287.572
       662.00000  5.53448e-12      287.461
       662.10000  5.53448e-12      287.350
       662.20000  5.53448e-12      287.240
       662.30000  5.53448e-12      287.184
       662.40000  5.53448e-12      287.129
       662.50000  5.92569e-12      307.306
       662.60000  5.92569e-12      307.306
       662.70000  5.92569e-12      307.247
       662.80000  5.92569e-12      307.188
       662.90000  5.92569e-12      307.188
       663.00000  5.92569e-12      307.188
       663.10000  5.92569e-12      307.425
       663.20000  5.92569e-12      307.602
       663.30000  5.92569e-12      307.839
       663.40000  5.92569e-12      308.017
       663.50000  3.12980e-12      162.781
       663.60000  3.12980e-12      162.875
       663.70000  3.12980e-12      162.937
       663.80000  3.12312e-12      162.683
       663.90000  3.12312e-12      162.746
       664.00000  3.12312e-12      162.777
       664.10000  3.12312e-12      162.839
       664.20000  3.12312e-12      162.871
       664.30000  3.12312e-12      162.902
       664.40000  3.12312e-12      162.933
       664.50000  5.90050e-13      30.7829
       664.60000  5.90050e-13      30.7829
       664.70000  5.90050e-13      30.7829
       664.80000  5.90050e-13      30.7829
       664.90000  5.90050e-13      30.7829
       665.00000  5.90050e-13      30.7770
       665.10000  5.90050e-13      30.7711
       665.20000  5.90050e-13      30.7652
       665.30000  5.90050e-13      30.7534
       665.40000  5.90050e-13      30.7416
       665.50000  1.25162e-12      65.1843
       665.60000  1.25162e-12      65.1592
       665.70000  1.25162e-12      65.1217
       665.80000  1.25162e-12      65.0967
       665.90000  1.25162e-12      65.0591
       666.00000  1.25162e-12      65.0091
       666.10000  1.25162e-12      64.9715
       666.20000  1.25162e-12      64.9214
       666.30000  1.24847e-12      64.7084
       666.40000  1.24847e-12      64.6585
       666.50000  8.51043e-13      44.0330
       666.60000  8.51043e-13      43.9904
       666.70000  8.51043e-13      43.9479
       666.80000  8.51043e-13      43.9053
       666.90000  8.51043e-13      43.8628
       667.00000  8.51043e-13      43.8117
       667.10000  8.51043e-13      43.8628
       667.20000  8.51043e-13      43.9053
       667.30000  8.51043e-13      43.9479
       667.40000  8.51043e-13      43.9904
       667.50000  1.92977e-12      99.8463
       667.60000  1.92977e-12      99.9235
       667.70000  1.92977e-12      100.001
       667.80000  1.92977e-12      100.059
       667.90000  1.92977e-12      100.116
       668.00000  1.92977e-12      100.174
       668.10000  1.92977e-12      100.232
       668.20000  1.92977e-12      100.271
       668.30000  1.92977e-12      100.309
       668.40000  1.92977e-12      100.329
       668.50000  3.38885e-12      176.220
       668.60000  3.38885e-12      176.254
       668.70000  3.38885e-12      176.254
       668.80000  3.38330e-12      175.966
       668.90000  3.38330e-12      175.966
       669.00000  3.38330e-12      175.932
       669.10000  3.38330e-12      175.695
       669.20000  3.38330e-12      175.458
       669.30000  3.38330e-12      175.255
       669.40000  3.38330e-12      175.052
       669.50000  2.39845e-12      123.952
       669.60000  2.39845e-12      123.808
       669.70000  2.39845e-12      123.688
       669.80000  2.39845e-12      123.568
       669.90000  2.39845e-12      123.448
       670.00000  2.39845e-12      123.352
       670.10000  2.39845e-12      123.257
       670.20000  2.39845e-12      123.161
       670.30000  2.39845e-12      123.065
       670.40000  2.39845e-12      122.993
       670.50000  1.10909e-13      5.68411
       670.60000  1.10909e-13      5.68078
       670.70000  1.10909e-13      5.67857
       670.80000  1.10909e-13      5.67635
       670.90000  1.10909e-13      5.67413
       671.00000  1.10909e-13      5.67302
       671.10000  1.10909e-13      5.67080
       671.20000  1.10909e-13      5.67080
       671.30000  1.10914e-13      5.66991
       671.40000  1.10914e-13      5.66991
       671.50000  1.31291e-12      67.1161
       671.60000  1.31291e-12      67.1161
       671.70000  1.31291e-12      67.1161
       671.80000  1.31291e-12      67.1292
       671.90000  1.31291e-12      67.1423
       672.00000  1.31291e-12      67.1686
       672.10000  1.31291e-12      67.1948
       672.20000  1.31291e-12      67.2211
       672.30000  1.31291e-12      67.2474
       672.40000  1.31291e-12      67.2867
       672.50000  1.26926e-12      65.0875
       672.60000  1.26926e-12      65.1256
       672.70000  1.26926e-12      65.1636
       672.80000  1.26926e-12      65.2144
       672.90000  1.26926e-12      65.2652
       673.00000  1.26926e-12      65.3286
       673.10000  1.26926e-12      65.3033
       673.20000  1.26926e-12      65.2779
       673.30000  1.26926e-12      65.2525
       673.40000  1.26926e-12      65.2398
       673.50000  2.14902e-13      11.0416
       673.60000  2.14902e-13      11.0395
       673.70000  2.14902e-13      11.0373
       673.80000  2.14987e-13      11.0375
       673.90000  2.14987e-13      11.0353
       674.00000  2.14987e-13      11.0332
       674.10000  2.14987e-13      11.0310
       674.20000  2.14987e-13      11.0289
       674.30000  2.14987e-13      11.0267
       674.40000  2.14987e-13      11.0246
       674.50000  5.04302e-13      25.8556
       674.60000  5.04302e-13      25.8556
       674.70000  5.04302e-13      25.8505
       674.80000  5.04302e-13      25.8505
       674.90000  5.04302e-13      25.8455
       675.00000  5.04302e-13      25.8455
       675.10000  5.04302e-13      25.8505
       675.20000  5.04302e-13      25.8556
       675.30000  5.04302e-13      25.8606
       675.40000  5.04302e-13      25.8657
       675.50000  2.97212e-14      1.52440
       675.60000  2.97212e-14      1.52470
       675.70000  2.97212e-14      1.52499
       675.80000  2.97212e-14      1.52499
       675.90000  2.97212e-14      1.52529
       676.00000  2.97212e-14      1.52529
       676.10000  2.97212e-14      1.52559
       676.20000  2.97212e-14      1.52559
       676.30000  2.96908e-14      1.52403
       676.40000  2.96908e-14      1.52403
       676.50000  1.13319e-12      58.1780
       676.60000  1.13319e-12      58.1780
       676.70000  1.13319e-12      58.1780
       676.80000  1.13319e-12      58.1667
       676.90000  1.13319e-12      58.1667
       677.00000  1.13319e-12      58.1667
       677.10000  1.13319e-12      58.1667
       677.20000  1.13319e-12      58.1553
       677.30000  1.13319e-12      58.1553
       677.40000  1.13319e-12      58.1440
       677.50000  1.33173e-12      68.3311
       677.60000  1.33173e-12      68.3178
       677.70000  1.33173e-12      68.3178
       677.80000  1.33173e-12      68.3045
       677.90000  1.33173e-12      68.2912
       678.00000  1.33173e-12      68.2779
       678.10000  1.33173e-12      68.2645
       678.20000  1.33173e-12      68.2512
       678.30000  1.33173e-12      68.2379
       678.40000  1.33173e-12      68.2246
       678.50000  3.61148e-13      18.4944
       678.60000  3.61148e-13      18.4908
       678.70000  3.61148e-13      18.4871
       678.80000  3.61120e-13      18.4785
       678.90000  3.61120e-13      18.4749
       679.00000  3.61120e-13      18.4677
       679.10000  3.61120e-13      18.4677
       679.20000  3.61120e-13      18.4713
       679.30000  3.61120e-13      18.4713
       679.40000  3.61120e-13      18.4713
       679.50000  1.79873e-12      92.0049
       679.60000  1.79873e-12      92.0049
       679.70000  1.79873e-12      92.0049
       679.80000  1.79873e-12      92.0049
       679.90000  1.79873e-12      92.0049
       680.00000  1.79873e-12      91.9870
       680.10000  1.79873e-12      91.9870
       680.20000  1.79873e-12      91.9870
       680.30000  1.79873e-12      91.9690
       680.40000  1.79873e-12      91.9690
       680.50000  2.50172e-13      12.7888
       680.60000  2.50172e-13      12.7888
       680.70000  2.50172e-13      12.7863
       680.80000  2.50172e-13      12.7838
       680.90000  2.50172e-13      12.7813
       681.00000  2.50172e-13      12.7813
       681.10000  2.50172e-13      12.7788
       681.20000  2.50172e-13      12.7763
       681.30000  2.50149e-13      12.7751
       681.40000  2.50149e-13      12.7726
       681.50000  4.36437e-13      22.2801
       681.60000  4.36437e-13      22.2757
       681.70000  4.36437e-13      22.2714
       681.80000  4.36437e-13      22.2627
       681.90000  4.36437e-13      22.2583
       682.00000  4.36437e-13      22.2539
       682.10000  4.36437e-13      22.2452
       682.20000  4.36437e-13      22.2365
       682.30000  4.36437e-13      22.2321
       682.40000  4.36437e-13      22.2234
       682.50000  1.46831e-13      7.47370
       682.60000  1.46831e-13      7.47076
       682.70000  1.46831e-13      7.46782
       682.80000  1.46831e-13      7.46489
       682.90000  1.46831e-13      7.46048
       683.00000  1.46831e-13      7.45754
       683.10000  1.46831e-13      7.45461
       683.20000  1.46831e-13      7.45020
       683.30000  1.46831e-13      7.44580
       683.40000  1.46831e-13      7.44139
       683.50000  2.20626e-13      11.1769
       683.60000  2.20626e-13      11.1703
       683.70000  2.20626e-13      11.1637
       683.80000  2.20457e-13      11.1463
       683.90000  2.20457e-13      11.1397
       684.00000  2.20457e-13      11.1331
       684.10000  2.20457e-13      11.1242
       684.20000  2.20457e-13      11.1176
       684.30000  2.20457e-13      11.1088
       684.40000  2.20457e-13      11.1022
       684.50000  2.21568e-13      11.1493
       684.60000  2.21568e-13      11.1404
       684.70000  2.21568e-13      11.1316
       684.80000  2.21568e-13      11.1227
       684.90000  2.21568e-13      11.1116
       685.00000  2.21568e-13      11.1028
       685.10000  2.21568e-13      11.1116
       685.20000  2.21568e-13      11.1227
       685.30000  2.21568e-13      11.1316
       685.40000  2.21568e-13      11.1382
       685.50000  9.06756e-13      45.6189
       685.60000  9.06756e-13      45.6552
       685.70000  9.06756e-13      45.6824
       685.80000  9.06756e-13      45.7096
       685.90000  9.06756e-13      45.7368
       686.00000  9.06756e-13      45.7640
       686.10000  9.06756e-13      45.7912
       686.20000  9.06756e-13      45.8093
       686.30000  9.05803e-13      45.7884
       686.40000  9.05803e-13      45.8065
       686.50000  2.16528e-13      10.9541
       686.60000  2.16528e-13      10.9585
       686.70000  2.16528e-13      10.9628
       686.80000  2.16528e-13      10.9650
       686.90000  2.16528e-13      10.9693
       687.00000  2.16528e-13      10.9715
       687.10000  2.16528e-13      10.9736
       687.20000  2.16528e-13      10.9736
       687.30000  2.16528e-13      10.9736
       687.40000  2.16528e-13      10.9736
       687.50000  1.01726e-12      51.5545
       687.60000  1.01726e-12      51.5545
       687.70000  1.01726e-12      51.5545
       687.80000  1.01726e-12      51.5545
       687.90000  1.01726e-12      51.5545
       688.00000  1.01726e-12      51.5443
       688.10000  1.01726e-12      51.5443
       688.20000  1.01726e-12      51.5443
       688.30000  1.01726e-12      51.5341
       688.40000  1.01726e-12      51.5341
       688.50000  3.67867e-14      1.86324
       688.60000  3.67867e-14      1.86288
       688.70000  3.67867e-14      1.86288
       688.80000  3.67397e-14      1.86013
       688.90000  3.67397e-14      1.85977
       689.00000  3.67397e-14      1.85940
       689.10000  3.67397e-14      1.85903
       689.20000  3.67397e-14      1.85866
       689.30000  3.67397e-14      1.85830
       689.40000  3.67397e-14      1.85793
       689.50000  2.36109e-13      11.9377
       689.60000  2.36109e-13      11.9353
       689.70000  2.36109e-13      11.9306
       689.80000  2.36109e-13      11.9282
       689.90000  2.36109e-13      11.9259
       690.00000  2.36109e-13      11.9212
       690.10000  2.36109e-13      11.9164
       690.20000  2.36109e-13      11.9141
       690.30000  2.36109e-13      11.9093
       690.40000  2.36109e-13      11.9046
       690.50000  5.45451e-13      27.4962
       690.60000  5.45451e-13      27.4853
       690.70000  5.45451e-13      27.4744
       690.80000  5.45451e-13      27.4634
       690.90000  5.45451e-13      27.4525
       691.00000  5.45451e-13      27.4416
       691.10000  5.45451e-13      27.4525
       691.20000  5.45451e-13      27.4580
       691.30000  5.44930e-13      27.4427
       691.40000  5.44930e-13      27.4481
       691.50000  7.90524e-15     0.398266
       691.60000  7.90524e-15     0.398424
       691.70000  7.90524e-15     0.398503
       691.80000  7.90524e-15     0.398582
       691.90000  7.90524e-15     0.398661
       692.00000  7.90524e-15     0.398661
       692.10000  7.90524e-15     0.398740
       692.20000  7.90524e-15     0.398820
       692.30000  7.90524e-15     0.398820
       692.40000  7.90524e-15     0.398820
       692.50000  4.16235e-13      21.0032
       692.60000  4.16235e-13      21.0032
       692.70000  4.16235e-13      21.0032
       692.80000  4.16235e-13      21.0032
       692.90000  4.16235e-13      21.0032
       693.00000  4.16235e-13      20.9990
       693.10000  4.16235e-13      20.9990
       693.20000  4.16235e-13      20.9949
       693.30000  4.16235e-13      20.9907
       693.40000  4.16235e-13      20.9865
       693.50000  3.67830e-13      18.5423
       693.60000  3.67830e-13      18.5386
       693.70000  3.67830e-13      18.5349
       693.80000  3.66371e-13      18.4577
       693.90000  3.66371e-13      18.4504
       694.00000  3.66371e-13      18.4468
       694.10000  3.66371e-13      18.4431
       694.20000  3.66371e-13      18.4358
       694.30000  3.66371e-13      18.4321
       694.40000  3.66371e-13      18.4248
       694.50000  3.30466e-13      16.6125
       694.60000  3.30466e-13      16.6092
       694.70000  3.30466e-13      16.6026
       694.80000  3.30466e-13      16.5960
       694.90000  3.30466e-13      16.5894
       695.00000  3.30466e-13      16.5828
       695.10000  3.30466e-13      16.5762
       695.20000  3.30466e-13      16.5696
       695.30000  3.30466e-13      16.5597
       695.40000  3.30466e-13      16.5531
       695.50000  9.50137e-14      4.75733
       695.60000  9.50137e-14      4.75448
       695.70000  9.50137e-14      4.75258
       695.80000  9.50137e-14      4.74973
       695.90000  9.50137e-14      4.74688
       696.00000  9.50137e-14      4.74498
       696.10000  9.50137e-14      4.74213
       696.20000  9.50137e-14      4.73928
       696.30000  9.49204e-14      4.73178
       696.40000  9.49204e-14      4.72893
       696.50000  3.75756e-13      18.7089
       696.60000  3.75756e-13      18.6976
       696.70000  3.75756e-13      18.6826
       696.80000  3.75756e-13      18.6713
       696.90000  3.75756e-13      18.6600
       697.00000  3.75756e-13      18.6450
       697.10000  3.75756e-13      18.6713
       697.20000  3.75756e-13      18.6901
       697.30000  3.75756e-13      18.7126
       697.40000  3.75756e-13      18.7314
       697.50000  4.11748e-13      20.5462
       697.60000  4.11748e-13      20.5627
       697.70000  4.11748e-13      20.5792
       697.80000  4.11748e-13      20.5915
       697.90000  4.11748e-13      20.6039
       698.00000  4.11748e-13      20.6121
       698.10000  4.11748e-13      20.6203
       698.20000  4.11748e-13      20.6286
       698.30000  4.11748e-13      20.6327
       698.40000  4.11748e-13      20.6368
       698.50000  5.12548e-13      25.6940
       698.60000  5.12548e-13      25.6940
       698.70000  5.12548e-13      25.6889
       698.80000  5.11673e-13      25.6399
       698.90000  5.11673e-13      25.6348
       699.00000  5.11673e-13      25.6246
       699.10000  5.11673e-13      25.5785
       699.20000  5.11673e-13      25.5274
       699.30000  5.11673e-13      25.4864
       699.40000  5.11673e-13      25.4404
       699.50000  2.77107e-13      13.7556
       699.60000  2.77107e-13      13.7334
       699.70000  2.77107e-13      13.7140
       699.80000  2.77107e-13      13.6946
       699.90000  2.77107e-13      13.6752
       700.00000  2.77107e-13      13.6586
       700.10000  2.77107e-13      13.6420
       700.20000  2.77107e-13      13.6253
       700.30000  2.77107e-13      13.6115
       700.40000  2.77107e-13      13.5976
       700.50000  4.62271e-13      22.6605
       700.60000  4.62271e-13      22.6420
       700.70000  4.62271e-13      22.6235
       700.80000  4.62271e-13      22.6097
       700.90000  4.62271e-13      22.5958
       701.00000  4.62271e-13      22.5819
       701.10000  4.62271e-13      22.5773
       701.20000  4.62271e-13      22.5727
       701.30000  4.61955e-13      22.5527
       701.40000  4.61955e-13      22.5527
       701.50000  1.92616e-14     0.940352
       701.60000  1.92616e-14     0.940352
       701.70000  1.92616e-14     0.940352
       701.80000  1.92616e-14     0.940545
       701.90000  1.92616e-14     0.940545
       702.00000  1.92616e-14     0.940738
       702.10000  1.92616e-14     0.941123
       702.20000  1.92616e-14     0.941315
       702.30000  1.92616e-14     0.941701
       702.40000  1.92616e-14     0.941893
       702.50000  4.67391e-13      22.8648
       702.60000  4.67391e-13      22.8788
       702.70000  4.67391e-13      22.8882
       702.80000  4.67391e-13      22.9022
       702.90000  4.67391e-13      22.9162
       703.00000  4.67391e-13      22.9302
       703.10000  4.67391e-13      22.9723
       703.20000  4.67391e-13      23.0144
       703.30000  4.67391e-13      23.0517
       703.40000  4.67391e-13      23.0891
       703.50000  1.58464e-13      7.83921
       703.60000  1.58464e-13      7.85189
       703.70000  1.58464e-13      7.86139
       703.80000  1.58037e-13      7.85130
       703.90000  1.58037e-13      7.86078
       704.00000  1.58037e-13      7.86868
       704.10000  1.58037e-13      7.87816
       704.20000  1.58037e-13      7.88607
       704.30000  1.58037e-13      7.89239
       704.40000  1.58037e-13      7.89871
       704.50000  3.64325e-13      18.2236
       704.60000  3.64325e-13      18.2381
       704.70000  3.64325e-13      18.2491
       704.80000  3.64325e-13      18.2563
       704.90000  3.64325e-13      18.2673
       705.00000  3.64325e-13      18.2746
       705.10000  3.64325e-13      18.2782
       705.20000  3.64325e-13      18.2819
       705.30000  3.64325e-13      18.2855
       705.40000  3.64325e-13      18.2891
       705.50000  8.30358e-14      4.16840
       705.60000  8.30358e-14      4.16840
       705.70000  8.30358e-14      4.16757
       705.80000  8.30358e-14      4.16674
       705.90000  8.30358e-14      4.16591
       706.00000  8.30358e-14      4.16425
       706.10000  8.30358e-14      4.16259
       706.20000  8.30358e-14      4.16009
       706.30000  8.30982e-14      4.16073
       706.40000  8.30982e-14      4.15824
       706.50000  1.99153e-13      9.95764
       706.60000  1.99153e-13      9.94968
       706.70000  1.99153e-13      9.94171
       706.80000  1.99153e-13      9.93176
       706.90000  1.99153e-13      9.92180
       707.00000  1.99153e-13      9.91184
       707.10000  1.99153e-13      9.90387
       707.20000  1.99153e-13      9.89790
       707.30000  1.99153e-13      9.88993
       707.40000  1.99153e-13      9.88396
       707.50000  2.39949e-14      1.19015
       707.60000  2.39949e-14      1.18943
       707.70000  2.39949e-14      1.18895
       707.80000  2.39949e-14      1.18823
       707.90000  2.39949e-14      1.18775
       708.00000  2.39949e-14      1.18727
       708.10000  2.39949e-14      1.18679
       708.20000  2.39949e-14      1.18631
       708.30000  2.39949e-14      1.18583
       708.40000  2.39949e-14      1.18535
       708.50000  1.97006e-13      9.73014
       708.60000  1.97006e-13      9.72620
       708.70000  1.97006e-13      9.72423
       708.80000  1.96336e-13      9.68916
       708.90000  1.96336e-13      9.68719
       709.00000  1.96336e-13      9.68719
       709.10000  1.96336e-13      9.69112
       709.20000  1.96336e-13      9.69505
       709.30000  1.96336e-13      9.69701
       709.40000  1.96336e-13      9.70094
       709.50000  6.28675e-13      31.0691
       709.60000  6.28675e-13      31.0817
       709.70000  6.28675e-13      31.0880
       709.80000  6.28675e-13      31.0943
       709.90000  6.28675e-13      31.1005
       710.00000  6.28675e-13      31.1068
       710.10000  6.28675e-13      31.1131
       710.20000  6.28675e-13      31.1194
       710.30000  6.28675e-13      31.1194
       710.40000  6.28675e-13      31.1257
       710.50000  2.12178e-13      10.5049
       710.60000  2.12178e-13      10.5049
       710.70000  2.12178e-13      10.5049
       710.80000  2.12178e-13      10.5049
       710.90000  2.12178e-13      10.5049
       711.00000  2.12178e-13      10.5049
       711.10000  2.12178e-13      10.5049
       711.20000  2.12178e-13      10.5028
       711.30000  2.12224e-13      10.5051
       711.40000  2.12224e-13      10.5030
       711.50000  2.96165e-13      14.6542
       711.60000  2.96165e-13      14.6513
       711.70000  2.96165e-13      14.6483
       711.80000  2.96165e-13      14.6454
       711.90000  2.96165e-13      14.6424
       712.00000  2.96165e-13      14.6365
       712.10000  2.96165e-13      14.6335
       712.20000  2.96165e-13      14.6276
       712.30000  2.96165e-13      14.6246
       712.40000  2.96165e-13      14.6187
       712.50000  3.24277e-13      15.9998
       712.60000  3.24277e-13      15.9933
       712.70000  3.24277e-13      15.9836
       712.80000  3.24277e-13      15.9771
       712.90000  3.24277e-13      15.9706
       713.00000  3.24277e-13      15.9609
       713.10000  3.24277e-13      15.9609
       713.20000  3.24277e-13      15.9609
       713.30000  3.24277e-13      15.9609
       713.40000  3.24277e-13      15.9577
       713.50000  4.74571e-13      23.3536
       713.60000  4.74571e-13      23.3536
       713.70000  4.74571e-13      23.3489
       713.80000  4.74460e-13      23.3434
       713.90000  4.74460e-13      23.3387
       714.00000  4.74460e-13      23.3387
       714.10000  4.74460e-13      23.3340
       714.20000  4.74460e-13      23.3292
       714.30000  4.74460e-13      23.3292
       714.40000  4.74460e-13      23.3245
       714.50000  1.93743e-13      9.52245
       714.60000  1.93743e-13      9.52051
       714.70000  1.93743e-13      9.52051
       714.80000  1.93743e-13      9.51858
       714.90000  1.93743e-13      9.51664
       715.00000  1.93743e-13      9.51470
       715.10000  1.93743e-13      9.51276
       715.20000  1.93743e-13      9.51276
       715.30000  1.93743e-13      9.51276
       715.40000  1.93743e-13      9.51083
       715.50000  3.27568e-13      16.0770
       715.60000  3.27568e-13      16.0737
       715.70000  3.27568e-13      16.0705
       715.80000  3.27568e-13      16.0672
       715.90000  3.27568e-13      16.0639
       716.00000  3.27568e-13      16.0574
       716.10000  3.27568e-13      16.0541
       716.20000  3.27568e-13      16.0475
       716.30000  3.27095e-13      16.0179
       716.40000  3.27095e-13      16.0113
       716.50000  2.29334e-13      11.2213
       716.60000  2.29334e-13      11.2167
       716.70000  2.29334e-13      11.2122
       716.80000  2.29334e-13      11.2053
       716.90000  2.29334e-13      11.2007
       717.00000  2.29334e-13      11.1938
       717.10000  2.29334e-13      11.1869
       717.20000  2.29334e-13      11.1801
       717.30000  2.29334e-13      11.1732
       717.40000  2.29334e-13      11.1663
       717.50000  1.34329e-13      6.53645
       717.60000  1.34329e-13      6.53107
       717.70000  1.34329e-13      6.52704
       717.80000  1.34329e-13      6.52167
       717.90000  1.34329e-13      6.51630
       718.00000  1.34329e-13      6.51093
       718.10000  1.34329e-13      6.50555
       718.20000  1.34329e-13      6.50018
       718.30000  1.34329e-13      6.49481
       718.40000  1.34329e-13      6.48809
       718.50000  6.15210e-13      29.6900
       718.60000  6.15210e-13      29.6593
       718.70000  6.15210e-13      29.6285
       718.80000  6.12683e-13      29.4762
       718.90000  6.12683e-13      29.4456
       719.00000  6.12683e-13      29.4149
       719.10000  6.12683e-13      29.4149
       719.20000  6.12683e-13      29.4149
       719.30000  6.12683e-13      29.4149
       719.40000  6.12683e-13      29.4210
       719.50000  2.98835e-13      14.3500
       719.60000  2.98835e-13      14.3530
       719.70000  2.98835e-13      14.3530
       719.80000  2.98835e-13      14.3560
       719.90000  2.98835e-13      14.3590
       720.00000  2.98835e-13      14.3650
       720.10000  2.98835e-13      14.3680
       720.20000  2.98835e-13      14.3710
       720.30000  2.98835e-13      14.3769
       720.40000  2.98835e-13      14.3799
       720.50000  5.65989e-13      27.2467
       720.60000  5.65989e-13      27.2580
       720.70000  5.65989e-13      27.2694
       720.80000  5.65989e-13      27.2807
       720.90000  5.65989e-13      27.2977
       721.00000  5.65989e-13      27.3090
       721.10000  5.65989e-13      27.3373
       721.20000  5.65989e-13      27.3656
       721.30000  5.64837e-13      27.3381
       721.40000  5.64837e-13      27.3607
       721.50000  9.47707e-13      45.9543
       721.60000  9.47707e-13      45.9922
       721.70000  9.47707e-13      46.0301
       721.80000  9.47707e-13      46.0775
       721.90000  9.47707e-13      46.1154
       722.00000  9.47707e-13      46.1439
       722.10000  9.47707e-13      46.1818
       722.20000  9.47707e-13      46.2197
       722.30000  9.47707e-13      46.2481
       722.40000  9.47707e-13      46.2765
       722.50000  1.97897e-12      96.6925
       722.60000  1.97897e-12      96.7716
       722.70000  1.97897e-12      96.8112
       722.80000  1.97897e-12      96.8706
       722.90000  1.97897e-12      96.9299
       723.00000  1.97897e-12      96.9695
       723.10000  1.97897e-12      97.0289
       723.20000  1.97897e-12      97.0685
       723.30000  1.97897e-12      97.1080
       723.40000  1.97897e-12      97.1476
       723.50000  2.06151e-12      101.241
       723.60000  2.06151e-12      101.261
       723.70000  2.06151e-12      101.302
       723.80000  2.05518e-12      101.012
       723.90000  2.05518e-12      101.033
       724.00000  2.05518e-12      101.053
       724.10000  2.05518e-12      101.074
       724.20000  2.05518e-12      101.094
       724.30000  2.05518e-12      101.115
       724.40000  2.05518e-12      101.135
       724.50000  3.02069e-12      148.648
       724.60000  3.02069e-12      148.648
       724.70000  3.02069e-12      148.648
       724.80000  3.02069e-12      148.648
       724.90000  3.02069e-12      148.648
       725.00000  3.02069e-12      148.648
       725.10000  3.02069e-12      148.709
       725.20000  3.02069e-12      148.769
       725.30000  3.02069e-12      148.799
       725.40000  3.02069e-12      148.860
       725.50000  2.44926e-12      120.724
       725.60000  2.44926e-12      120.748
       725.70000  2.44926e-12      120.748
       725.80000  2.44926e-12      120.773
       725.90000  2.44926e-12      120.773
       726.00000  2.44926e-12      120.773
       726.10000  2.44926e-12      120.773
       726.20000  2.44926e-12      120.773
       726.30000  2.44288e-12      120.434
       726.40000  2.44288e-12      120.410
       726.50000  2.59932e-12      128.095
       726.60000  2.59932e-12      128.069
       726.70000  2.59932e-12      128.043
       726.80000  2.59932e-12      127.991
       726.90000  2.59932e-12      127.939
       727.00000  2.59932e-12      127.887
       727.10000  2.59932e-12      127.705
       727.20000  2.59932e-12      127.523
       727.30000  2.59932e-12      127.341
       727.40000  2.59932e-12      127.185
       727.50000  4.91378e-12      240.136
       727.60000  4.91378e-12      239.841
       727.70000  4.91378e-12      239.596
       727.80000  4.91378e-12      239.350
       727.90000  4.91378e-12      239.104
       728.00000  4.91378e-12      238.908
       728.10000  4.91378e-12      238.711
       728.20000  4.91378e-12      238.515
       728.30000  4.91378e-12      238.318
       728.40000  4.91378e-12      238.171
       728.50000  4.75074e-12      230.126
       728.60000  4.75074e-12      230.031
       728.70000  4.75074e-12      229.888
       728.80000  4.75174e-12      229.889
       728.90000  4.75174e-12      229.794
       729.00000  4.75174e-12      229.747
       729.10000  4.75174e-12      229.699
       729.20000  4.75174e-12      229.652
       729.30000  4.75174e-12      229.652
       729.40000  4.75174e-12      229.604
       729.50000  2.06496e-12      99.7995
       729.60000  2.06496e-12      99.7995
       729.70000  2.06496e-12      99.8201
       729.80000  2.06496e-12      99.8408
       729.90000  2.06496e-12      99.8821
       730.00000  2.06496e-12      99.9234
       730.10000  2.06496e-12      99.9647
       730.20000  2.06496e-12      100.006
       730.30000  2.06496e-12      100.068
       730.40000  2.06496e-12      100.130
       730.50000  1.83461e-12      89.0153
       730.60000  1.83461e-12      89.0886
       730.70000  1.83461e-12      89.1620
       730.80000  1.83461e-12      89.2354
       730.90000  1.83461e-12      89.3271
       731.00000  1.83461e-12      89.4189
       731.10000  1.83461e-12      89.4005
       731.20000  1.83461e-12      89.3822
       731.30000  1.83326e-12      89.2981
       731.40000  1.83326e-12      89.2981
       731.50000  1.85158e-12      90.1719
       731.60000  1.85158e-12      90.1534
       731.70000  1.85158e-12      90.1348
       731.80000  1.85158e-12      90.1348
       731.90000  1.85158e-12      90.1163
       732.00000  1.85158e-12      90.0978
       732.10000  1.85158e-12      90.0793
       732.20000  1.85158e-12      90.0608
       732.30000  1.85158e-12      90.0608
       732.40000  1.85158e-12      90.0423
       732.50000  1.39047e-12      67.6047
       732.60000  1.39047e-12      67.5908
       732.70000  1.39047e-12      67.5769
       732.80000  1.39047e-12      67.5630
       732.90000  1.39047e-12      67.5490
       733.00000  1.39047e-12      67.5351
       733.10000  1.39047e-12      67.5212
       733.20000  1.39047e-12      67.4934
       733.30000  1.39047e-12      67.4795
       733.40000  1.39047e-12      67.4517
       733.50000  1.13773e-12      55.1800
       733.60000  1.13773e-12      55.1686
       733.70000  1.13773e-12      55.1458
       733.80000  1.13585e-12      55.0434
       733.90000  1.13585e-12      55.0320
       734.00000  1.13585e-12      55.0207
       734.10000  1.13585e-12      55.0093
       734.20000  1.13585e-12      54.9980
       734.30000  1.13585e-12      54.9866
       734.40000  1.13585e-12      54.9866
       734.50000  2.58842e-12      125.280
       734.60000  2.58842e-12      125.254
       734.70000  2.58842e-12      125.254
       734.80000  2.58842e-12      125.228
       734.90000  2.58842e-12      125.228
       735.00000  2.58842e-12      125.202
       735.10000  2.58842e-12      125.202
       735.20000  2.58842e-12      125.202
       735.30000  2.58842e-12      125.202
       735.40000  2.58842e-12      125.176
       735.50000  3.25918e-12      157.614
       735.60000  3.25918e-12      157.614
       735.70000  3.25918e-12      157.614
       735.80000  3.25918e-12      157.646
       735.90000  3.25918e-12      157.646
       736.00000  3.25918e-12      157.646
       736.10000  3.25918e-12      157.646
       736.20000  3.25918e-12      157.679
       736.30000  3.25296e-12      157.378
       736.40000  3.25296e-12      157.411
       736.50000  4.71691e-12      228.251
       736.60000  4.71691e-12      228.298
       736.70000  4.71691e-12      228.345
       736.80000  4.71691e-12      228.345
       736.90000  4.71691e-12      228.393
       737.00000  4.71691e-12      228.440
       737.10000  4.71691e-12      228.204
       737.20000  4.71691e-12      227.921
       737.30000  4.71691e-12      227.685
       737.40000  4.71691e-12      227.449
       737.50000  2.44710e-12      117.853
       737.60000  2.44710e-12      117.730
       737.70000  2.44710e-12      117.608
       737.80000  2.44710e-12      117.485
       737.90000  2.44710e-12      117.388
       738.00000  2.44710e-12      117.265
       738.10000  2.44710e-12      117.143
       738.20000  2.44710e-12      117.021
       738.30000  2.44710e-12      116.923
       738.40000  2.44710e-12      116.825
       738.50000  6.26029e-12      298.553
       738.60000  6.26029e-12      298.303
       738.70000  6.26029e-12      298.052
       738.80000  6.23399e-12      296.551
       738.90000  6.23399e-12      296.301
       739.00000  6.23399e-12      296.052
       739.10000  6.23399e-12      295.553
       739.20000  6.23399e-12      295.117
       739.30000  6.23399e-12      294.743
       739.40000  6.23399e-12      294.369
       739.50000  5.07361e-12      239.271
       739.60000  5.07361e-12      239.018
       739.70000  5.07361e-12      238.815
       739.80000  5.07361e-12      238.561
       739.90000  5.07361e-12      238.409
       740.00000  5.07361e-12      238.206
       740.10000  5.07361e-12      238.104
       740.20000  5.07361e-12      237.952
       740.30000  5.07361e-12      237.851
       740.40000  5.07361e-12      237.800
       740.50000  7.60861e-12      356.540
       740.60000  7.60861e-12      356.463
       740.70000  7.60861e-12      356.463
       740.80000  7.60861e-12      356.463
       740.90000  7.60861e-12      356.540
       741.00000  7.60861e-12      356.616
       741.10000  7.60861e-12      356.768
       741.20000  7.60861e-12      356.920
       741.30000  7.60344e-12      356.829
       741.40000  7.60344e-12      357.057
       741.50000  1.50872e-13      7.08947
       741.60000  1.50872e-13      7.09551
       741.70000  1.50872e-13      7.10305
       741.80000  1.50872e-13      7.10908
       741.90000  1.50872e-13      7.11814
       742.00000  1.50872e-13      7.12568
       742.10000  1.50872e-13      7.13473
       742.20000  1.50872e-13      7.14529
       742.30000  1.50872e-13      7.15585
       742.40000  1.50872e-13      7.16642
       742.50000  2.05339e-12      97.7004
       742.60000  2.05339e-12      97.8647
       742.70000  2.05339e-12      98.0495
       742.80000  2.05339e-12      98.2343
       742.90000  2.05339e-12      98.4397
       743.00000  2.05339e-12      98.6450
       743.10000  2.05339e-12      98.6039
       743.20000  2.05339e-12      98.5834
       743.30000  2.05339e-12      98.5629
       743.40000  2.05339e-12      98.5218
       743.50000  3.59790e-12      172.591
       743.60000  3.59790e-12      172.555
       743.70000  3.59790e-12      172.519
       743.80000  3.59629e-12      172.406
       743.90000  3.59629e-12      172.370
       744.00000  3.59629e-12      172.334
       744.10000  3.59629e-12      172.334
       744.20000  3.59629e-12      172.298
       744.30000  3.59629e-12      172.298
       744.40000  3.59629e-12      172.298
       744.50000  1.76413e-12      84.5017
       744.60000  1.76413e-12      84.5017
       744.70000  1.76413e-12      84.5017
       744.80000  1.76413e-12      84.5017
       744.90000  1.76413e-12      84.5193
       745.00000  1.76413e-12      84.5193
       745.10000  1.76413e-12      84.5722
       745.20000  1.76413e-12      84.6252
       745.30000  1.76413e-12      84.6604
       745.40000  1.76413e-12      84.7134
       745.50000  8.05963e-13      38.7185
       745.60000  8.05963e-13      38.7346
       745.70000  8.05963e-13      38.7507
       745.80000  8.05963e-13      38.7668
       745.90000  8.05963e-13      38.7749
       746.00000  8.05963e-13      38.7910
       746.10000  8.05963e-13      38.7991
       746.20000  8.05963e-13      38.8071
       746.30000  8.02288e-13      38.6382
       746.40000  8.02288e-13      38.6462
       746.50000  1.38175e-12      66.5726
       746.60000  1.38175e-12      66.5726
       746.70000  1.38175e-12      66.5864
       746.80000  1.38175e-12      66.5864
       746.90000  1.38175e-12      66.5864
       747.00000  1.38175e-12      66.5864
       747.10000  1.38175e-12      66.5449
       747.20000  1.38175e-12      66.5173
       747.30000  1.38175e-12      66.4897
       747.40000  1.38175e-12      66.4620
       747.50000  8.62270e-13      41.4579
       747.60000  8.62270e-13      41.4407
       747.70000  8.62270e-13      41.4234
       747.80000  8.62270e-13      41.4062
       747.90000  8.62270e-13      41.3890
       748.00000  8.62270e-13      41.3717
       748.10000  8.62270e-13      41.3631
       748.20000  8.62270e-13      41.3458
       748.30000  8.62270e-13      41.3286
       748.40000  8.62270e-13      41.3200
       748.50000  1.83423e-12      87.8598
       748.60000  1.83423e-12      87.8231
       748.70000  1.83423e-12      87.8048
       748.80000  1.82777e-12      87.4587
       748.90000  1.82777e-12      87.4404
       749.00000  1.82777e-12      87.4221
       749.10000  1.82777e-12      87.3856
       749.20000  1.82777e-12      87.3673
       749.30000  1.82777e-12      87.3490
       749.40000  1.82777e-12      87.3307
       749.50000  2.25978e-13      10.7950
       749.60000  2.25978e-13      10.7927
       749.70000  2.25978e-13      10.7882
       749.80000  2.25978e-13      10.7859
       749.90000  2.25978e-13      10.7859
       750.00000  2.25978e-13      10.7837
       750.10000  2.25978e-13      10.7814
       750.20000  2.25978e-13      10.7791
       750.30000  2.25978e-13      10.7769
       750.40000  2.25978e-13      10.7769
       750.50000  3.58741e-13      17.1048
       750.60000  3.58741e-13      17.1012
       750.70000  3.58741e-13      17.1012
       750.80000  3.58741e-13      17.0976
       750.90000  3.58741e-13      17.0976
       751.00000  3.58741e-13      17.0940
       751.10000  3.58741e-13      17.0940
       751.20000  3.58741e-13      17.0940
       751.30000  3.57938e-13      17.0522
       751.40000  3.57938e-13      17.0522
       751.50000  8.13923e-13      38.7753
       751.60000  8.13923e-13      38.7753
       751.70000  8.13923e-13      38.7753
       751.80000  8.13923e-13      38.7753
       751.90000  8.13923e-13      38.7753
       752.00000  8.13923e-13      38.7753
       752.10000  8.13923e-13      38.7753
       752.20000  8.13923e-13      38.7753
       752.30000  8.13923e-13      38.7753
       752.40000  8.13923e-13      38.7753
       752.50000  3.59170e-13      17.1144
       752.60000  3.59170e-13      17.1144
       752.70000  3.59170e-13      17.1144
       752.80000  3.59170e-13      17.1180
       752.90000  3.59170e-13      17.1180
       753.00000  3.59170e-13      17.1216
       753.10000  3.59170e-13      17.1216
       753.20000  3.59170e-13      17.1216
       753.30000  3.59170e-13      17.1216
       753.40000  3.59170e-13      17.1216
       753.50000  5.66501e-14      2.70051
       753.60000  5.66501e-14      2.70051
       753.70000  5.66501e-14      2.70051
       753.80000  5.66215e-14      2.69915
       753.90000  5.66215e-14      2.69915
       754.00000  5.66215e-14      2.69915
       754.10000  5.66215e-14      2.69915
       754.20000  5.66215e-14      2.69858
       754.30000  5.66215e-14      2.69858
       754.40000  5.66215e-14      2.69858
       754.50000  8.35355e-13      39.8130
       754.60000  8.35355e-13      39.8130
       754.70000  8.35355e-13      39.8047
       754.80000  8.35355e-13      39.8047
       754.90000  8.35355e-13      39.7963
       755.00000  8.35355e-13      39.7963
       755.10000  8.35355e-13      39.7880
       755.20000  8.35355e-13      39.7880
       755.30000  8.35355e-13      39.7796
       755.40000  8.35355e-13      39.7796
       755.50000  3.42391e-13      16.3013
       755.60000  3.42391e-13      16.2978
       755.70000  3.42391e-13      16.2978
       755.80000  3.42391e-13      16.2944
       755.90000  3.42391e-13      16.2910
       756.00000  3.42391e-13      16.2910
       756.10000  3.42391e-13      16.2876
       756.20000  3.42391e-13      16.2841
       756.30000  3.41846e-13      16.2548
       756.40000  3.41846e-13      16.2548
       756.50000  1.98934e-13      9.45732
       756.60000  1.98934e-13      9.45533
       756.70000  1.98934e-13      9.45335
       756.80000  1.98934e-13      9.45335
       756.90000  1.98934e-13      9.45136
       757.00000  1.98934e-13      9.44937
       757.10000  1.98934e-13      9.44738
       757.20000  1.98934e-13      9.44539
       757.30000  1.98934e-13      9.44539
       757.40000  1.98934e-13      9.44340
       757.50000  6.73357e-13      31.9575
       757.60000  6.73357e-13      31.9508
       757.70000  6.73357e-13      31.9441
       757.80000  6.73357e-13      31.9373
       757.90000  6.73357e-13      31.9306
       758.00000  6.73357e-13      31.9306
       758.10000  6.73357e-13      31.9239
       758.20000  6.73357e-13      31.9171
       758.30000  6.73357e-13      31.9104
       758.40000  6.73357e-13      31.9037
       758.50000  5.32084e-13      25.2048
       758.60000  5.32084e-13      25.1995
       758.70000  5.32084e-13      25.1942
       758.80000  5.30648e-13      25.1209
       758.90000  5.30648e-13      25.1156
       759.00000  5.30648e-13      25.1103
       759.10000  5.30648e-13      25.1103
       759.20000  5.30648e-13      25.1050
       759.30000  5.30648e-13      25.1050
       759.40000  5.30648e-13      25.0997
       759.50000  6.11733e-13      28.9350
       759.60000  6.11733e-13      28.9350
       759.70000  6.11733e-13      28.9289
       759.80000  6.11733e-13      28.9289
       759.90000  6.11733e-13      28.9289
       760.00000  6.11733e-13      28.9289
       760.10000  6.11733e-13      28.9289
       760.20000  6.11733e-13      28.9289
       760.30000  6.11733e-13      28.9350
       760.40000  6.11733e-13      28.9350
       760.50000  5.98136e-13      28.2918
       760.60000  5.98136e-13      28.2978
       760.70000  5.98136e-13      28.2978
       760.80000  5.98136e-13      28.3038
       760.90000  5.98136e-13      28.3038
       761.00000  5.98136e-13      28.3098
       761.10000  5.98136e-13      28.3337
       761.20000  5.98136e-13      28.3517
       761.30000  5.96893e-13      28.3106
       761.40000  5.96893e-13      28.3285
       761.50000  4.07020e-13      19.3294
       761.60000  4.07020e-13      19.3375
       761.70000  4.07020e-13      19.3457
       761.80000  4.07020e-13      19.3538
       761.90000  4.07020e-13      19.3619
       762.00000  4.07020e-13      19.3660
       762.10000  4.07020e-13      19.3742
       762.20000  4.07020e-13      19.3782
       762.30000  4.07020e-13      19.3823
       762.40000  4.07020e-13      19.3823
       762.50000  3.77396e-13      17.9716
       762.60000  3.77396e-13      17.9754
       762.70000  3.77396e-13      17.9754
       762.80000  3.77396e-13      17.9716
       762.90000  3.77396e-13      17.9716
       763.00000  3.77396e-13      17.9678
       763.10000  3.77396e-13      17.9641
       763.20000  3.77396e-13      17.9603
       763.30000  3.77396e-13      17.9527
       763.40000  3.77396e-13      17.9452
       763.50000  4.80213e-13      22.8245
       763.60000  4.80213e-13      22.8149
       763.70000  4.80213e-13      22.8053
       763.80000  4.78984e-13      22.7326
       763.90000  4.78984e-13      22.7182
       764.00000  4.78984e-13      22.7038
       764.10000  4.78984e-13      22.6895
       764.20000  4.78984e-13      22.6703
       764.30000  4.78984e-13      22.6512
       764.40000  4.78984e-13      22.6320
       764.50000  4.80862e-13      22.7015
       764.60000  4.80862e-13      22.6822
       764.70000  4.80862e-13      22.6582
       764.80000  4.80862e-13      22.6342
       764.90000  4.80862e-13      22.6101
       765.00000  4.80862e-13      22.5813
       765.10000  4.80862e-13      22.5284
       765.20000  4.80862e-13      22.4755
       765.30000  4.80862e-13      22.4274
       765.40000  4.80862e-13      22.3793
       765.50000  3.44102e-13      15.9835
       765.60000  3.44102e-13      15.9560
       765.70000  3.44102e-13      15.9250
       765.80000  3.44102e-13      15.9009
       765.90000  3.44102e-13      15.8769
       766.00000  3.44102e-13      15.8528
       766.10000  3.44102e-13      15.8321
       766.20000  3.44102e-13      15.8115
       766.30000  3.44093e-13      15.7938
       766.40000  3.44093e-13      15.7801
       766.50000  8.04171e-13      36.8471
       766.60000  8.04171e-13      36.8149
       766.70000  8.04171e-13      36.7989
       766.80000  8.04171e-13      36.7747
       766.90000  8.04171e-13      36.7586
       767.00000  8.04171e-13      36.7506
       767.10000  8.04171e-13      36.7908
       767.20000  8.04171e-13      36.8391
       767.30000  8.04171e-13      36.8793
       767.40000  8.04171e-13      36.9195
       767.50000  2.52852e-13      11.6211
       767.60000  2.52852e-13      11.6337
       767.70000  2.52852e-13      11.6464
       767.80000  2.52852e-13      11.6565
       767.90000  2.52852e-13      11.6691
       768.00000  2.52852e-13      11.6792
       768.10000  2.52852e-13      11.6893
       768.20000  2.52852e-13      11.6995
       768.30000  2.52852e-13      11.7070
       768.40000  2.52852e-13      11.7172
       768.50000  3.29916e-13      15.2982
       768.60000  3.29916e-13      15.3081
       768.70000  3.29916e-13      15.3180
       768.80000  3.29741e-13      15.3198
       768.90000  3.29741e-13      15.3297
       769.00000  3.29741e-13      15.3363
       769.10000  3.29741e-13      15.3462
       769.20000  3.29741e-13      15.3527
       769.30000  3.29741e-13      15.3593
       769.40000  3.29741e-13      15.3659
       769.50000  8.29997e-13      38.6862
       769.60000  8.29997e-13      38.7028
       769.70000  8.29997e-13      38.7111
       769.80000  8.29997e-13      38.7277
       769.90000  8.29997e-13      38.7360
       770.00000  8.29997e-13      38.7360
       770.10000  8.29997e-13      38.7443
       770.20000  8.29997e-13      38.7526
       770.30000  8.29997e-13      38.7526
       770.40000  8.29997e-13      38.7526
       770.50000  8.46895e-13      39.5415
       770.60000  8.46895e-13      39.5415
       770.70000  8.46895e-13      39.5415
       770.80000  8.46895e-13      39.5415
       770.90000  8.46895e-13      39.5330
       771.00000  8.46895e-13      39.5246
       771.10000  8.46895e-13      39.5584
       771.20000  8.46895e-13      39.5839
       771.30000  8.44303e-13      39.4880
       771.40000  8.44303e-13      39.5134
       771.50000  2.12263e-12      99.4029
       771.60000  2.12263e-12      99.4454
       771.70000  2.12263e-12      99.5091
       771.80000  2.12263e-12      99.5515
       771.90000  2.12263e-12      99.5727
       772.00000  2.12263e-12      99.6152
       772.10000  2.12263e-12      99.6364
       772.20000  2.12263e-12      99.6576
       772.30000  2.12263e-12      99.6789
       772.40000  2.12263e-12      99.7001
       772.50000  1.83740e-12      86.3028
       772.60000  1.83740e-12      86.3028
       772.70000  1.83740e-12      86.3028
       772.80000  1.83740e-12      86.2844
       772.90000  1.83740e-12      86.2844
       773.00000  1.83740e-12      86.2660
       773.10000  1.83740e-12      86.1558
       773.20000  1.83740e-12      86.0639
       773.30000  1.83740e-12      85.9537
       773.40000  1.83740e-12      85.8618
       773.50000  2.31316e-12      107.978
       773.60000  2.31316e-12      107.886
       773.70000  2.31316e-12      107.793
       773.80000  2.30401e-12      107.275
       773.90000  2.30401e-12      107.182
       774.00000  2.30401e-12      107.090
       774.10000  2.30401e-12      107.021
       774.20000  2.30401e-12      106.952
       774.30000  2.30401e-12      106.906
       774.40000  2.30401e-12      106.837
       774.50000  1.48200e-12      68.6907
       774.60000  1.48200e-12      68.6759
       774.70000  1.48200e-12      68.6463
       774.80000  1.48200e-12      68.6315
       774.90000  1.48200e-12      68.6166
       775.00000  1.48200e-12      68.6018
       775.10000  1.48200e-12      68.6018
       775.20000  1.48200e-12      68.6018
       775.30000  1.48200e-12      68.6018
       775.40000  1.48200e-12      68.6018
       775.50000  5.82431e-13      26.9665
       775.60000  5.82431e-13      26.9724
       775.70000  5.82431e-13      26.9782
       775.80000  5.82431e-13      26.9840
       775.90000  5.82431e-13      26.9957
       776.00000  5.82431e-13      27.0073
       776.10000  5.82431e-13      27.0190
       776.20000  5.82431e-13      27.0364
       776.30000  5.80954e-13      26.9853
       776.40000  5.80954e-13      27.0027
       776.50000  3.30493e-12      153.712
       776.60000  3.30493e-12      153.844
       776.70000  3.30493e-12      153.977
       776.80000  3.30493e-12      154.109
       776.90000  3.30493e-12      154.274
       777.00000  3.30493e-12      154.406
       777.10000  3.30493e-12      154.340
       777.20000  3.30493e-12      154.307
       777.30000  3.30493e-12      154.241
       777.40000  3.30493e-12      154.175
       777.50000  2.13648e-12      99.6240
       777.60000  2.13648e-12      99.6027
       777.70000  2.13648e-12      99.5599
       777.80000  2.13648e-12      99.5386
       777.90000  2.13648e-12      99.5172
       778.00000  2.13648e-12      99.4745
       778.10000  2.13648e-12      99.4531
       778.20000  2.13648e-12      99.4317
       778.30000  2.13648e-12      99.4104
       778.40000  2.13648e-12      99.3890
       778.50000  3.31271e-12      154.107
       778.60000  3.31271e-12      154.074
       778.70000  3.31271e-12      154.041
       778.80000  3.30432e-12      153.651
       778.90000  3.30432e-12      153.651
       779.00000  3.30432e-12      153.618
       779.10000  3.30432e-12      153.684
       779.20000  3.30432e-12      153.717
       779.30000  3.30432e-12      153.783
       779.40000  3.30432e-12      153.816
       779.50000  3.47059e-12      161.590
       779.60000  3.47059e-12      161.625
       779.70000  3.47059e-12      161.660
       779.80000  3.47059e-12      161.695
       779.90000  3.47059e-12      161.729
       780.00000  3.47059e-12      161.764
       780.10000  3.47059e-12      161.764
       780.20000  3.47059e-12      161.799
       780.30000  3.47059e-12      161.799
       780.40000  3.47059e-12      161.799
       780.50000  2.35074e-12      109.592
       780.60000  2.35074e-12      109.592
       780.70000  2.35074e-12      109.592
       780.80000  2.35074e-12      109.592
       780.90000  2.35074e-12      109.592
       781.00000  2.35074e-12      109.568
       781.10000  2.35074e-12      109.568
       781.20000  2.35074e-12      109.545
       781.30000  2.33767e-12      108.912
       781.40000  2.33767e-12      108.889
       781.50000  4.73910e-12      220.700
       781.60000  4.73910e-12      220.653
       781.70000  4.73910e-12      220.605
       781.80000  4.73910e-12      220.558
       781.90000  4.73910e-12      220.463
       782.00000  4.73910e-12      220.416
       782.10000  4.73910e-12      220.321
       782.20000  4.73910e-12      220.226
       782.30000  4.73910e-12      220.179
       782.40000  4.73910e-12      220.084
       782.50000  3.18753e-12      147.965
       782.60000  3.18753e-12      147.869
       782.70000  3.18753e-12      147.806
       782.80000  3.18753e-12      147.742
       782.90000  3.18753e-12      147.646
       783.00000  3.18753e-12      147.582
       783.10000  3.18753e-12      147.646
       783.20000  3.18753e-12      147.710
       783.30000  3.18753e-12      147.774
       783.40000  3.18753e-12      147.806
       783.50000  2.45059e-12      113.683
       783.60000  2.45059e-12      113.732
       783.70000  2.45059e-12      113.757
       783.80000  2.43810e-12      113.225
       783.90000  2.43810e-12      113.274
       784.00000  2.43810e-12      113.299
       784.10000  2.43810e-12      113.323
       784.20000  2.43810e-12      113.372
       784.30000  2.43810e-12      113.396
       784.40000  2.43810e-12      113.421
       784.50000  1.61120e-15    0.0749690
       784.60000  1.61120e-15    0.0749851
       784.70000  1.61120e-15    0.0750012
       784.80000  1.61120e-15    0.0750173
       784.90000  1.61120e-15    0.0750334
       785.00000  1.61120e-15    0.0750334
       785.10000  1.61120e-15    0.0750334
       785.20000  1.61120e-15    0.0750334
       785.30000  1.61120e-15    0.0750334
       785.40000  1.61120e-15    0.0750334
       785.50000  7.39016e-13      34.4160
       785.60000  7.39016e-13      34.4160
       785.70000  7.39016e-13      34.4160
       785.80000  7.39016e-13      34.4160
       785.90000  7.39016e-13      34.4160
       786.00000  7.39016e-13      34.4160
       786.10000  7.39016e-13      34.4160
       786.20000  7.39016e-13      34.4160
       786.30000  7.37777e-13      34.3583
       786.40000  7.37777e-13      34.3583
       786.50000  1.06428e-12      49.5635
       786.60000  1.06428e-12      49.5635
       786.70000  1.06428e-12      49.5635
       786.80000  1.06428e-12      49.5635
       786.90000  1.06428e-12      49.5635
       787.00000  1.06428e-12      49.5635
       787.10000  1.06428e-12      49.5635
       787.20000  1.06428e-12      49.5635
       787.30000  1.06428e-12      49.5635
       787.40000  1.06428e-12      49.5635
       787.50000  5.20756e-13      24.2516
       787.60000  5.20756e-13      24.2516
       787.70000  5.20756e-13      24.2516
       787.80000  5.20756e-13      24.2516
       787.90000  5.20756e-13      24.2516
       788.00000  5.20756e-13      24.2516
       788.10000  5.20756e-13      24.2516
       788.20000  5.20756e-13      24.2516
       788.30000  5.20756e-13      24.2516
       788.40000  5.20756e-13      24.2516
       788.50000  2.76827e-13      12.8918
       788.60000  2.76827e-13      12.8918
       788.70000  2.76827e-13      12.8918
       788.80000  2.76875e-13      12.8941
       788.90000  2.76875e-13      12.8941
       789.00000  2.76875e-13      12.8941
       789.10000  2.76875e-13      12.8885
       789.20000  2.76875e-13      12.8802
       789.30000  2.76875e-13      12.8719
       789.40000  2.76875e-13      12.8664
       789.50000  2.51825e-13      11.6947
       789.60000  2.51825e-13      11.6872
       789.70000  2.51825e-13      11.6822
       789.80000  2.51825e-13      11.6746
       789.90000  2.51825e-13      11.6670
       790.00000  2.51825e-13      11.6620
       790.10000  2.51825e-13      11.6545
       790.20000  2.51825e-13      11.6494
       790.30000  2.51825e-13      11.6419
       790.40000  2.51825e-13      11.6368
       790.50000  1.59350e-13      7.35877
       790.60000  1.59350e-13      7.35399
       790.70000  1.59350e-13      7.35080
       790.80000  1.59350e-13      7.34602
       790.90000  1.59350e-13      7.34283
       791.00000  1.59350e-13      7.33805
       791.10000  1.59350e-13      7.33327
       791.20000  1.59350e-13      7.33009
       791.30000  1.58885e-13      7.30395
       791.40000  1.58885e-13      7.29919
       791.50000  4.53215e-13      20.8071
       791.60000  4.53215e-13      20.7935
       791.70000  4.53215e-13      20.7844
       791.80000  4.53215e-13      20.7708
       791.90000  4.53215e-13      20.7618
       792.00000  4.53215e-13      20.7482
       792.10000  4.53215e-13      20.7391
       792.20000  4.53215e-13      20.7301
       792.30000  4.53215e-13      20.7165
       792.40000  4.53215e-13      20.7074
       792.50000  6.93438e-13      31.6693
       792.60000  6.93438e-13      31.6554
       792.70000  6.93438e-13      31.6416
       792.80000  6.93438e-13      31.6277
       792.90000  6.93438e-13      31.6138
       793.00000  6.93438e-13      31.6000
       793.10000  6.93438e-13      31.5791
       793.20000  6.93438e-13      31.5514
       793.30000  6.93438e-13      31.5306
       793.40000  6.93438e-13      31.5098
       793.50000  5.56588e-13      25.2747
       793.60000  5.56588e-13      25.2635
       793.70000  5.56588e-13      25.2469
       793.80000  5.55000e-13      25.1693
       793.90000  5.55000e-13      25.1582
       794.00000  5.55000e-13      25.1526
       794.10000  5.55000e-13      25.1415
       794.20000  5.55000e-13      25.1415
       794.30000  5.55000e-13      25.1360
       794.40000  5.55000e-13      25.1360
       794.50000  4.54712e-13      20.5939
       794.60000  4.54712e-13      20.5939
       794.70000  4.54712e-13      20.5985
       794.80000  4.54712e-13      20.5985
       794.90000  4.54712e-13      20.6030
       795.00000  4.54712e-13      20.6121
       795.10000  4.54712e-13      20.6439
       795.20000  4.54712e-13      20.6758
       795.30000  4.54712e-13      20.7076
       795.40000  4.54712e-13      20.7394
       795.50000  1.59570e-13      7.28755
       795.60000  1.59570e-13      7.29713
       795.70000  1.59570e-13      7.30511
       795.80000  1.59570e-13      7.31308
       795.90000  1.59570e-13      7.32106
       796.00000  1.59570e-13      7.32745
       796.10000  1.59570e-13      7.33383
       796.20000  1.59570e-13      7.34021
       796.30000  1.59357e-13      7.33522
       796.40000  1.59357e-13      7.34000
       796.50000  1.30579e-13      6.01839
       796.60000  1.30579e-13      6.02100
       796.70000  1.30579e-13      6.02361
       796.80000  1.30579e-13      6.02492
       796.90000  1.30579e-13      6.02622
       797.00000  1.30579e-13      6.02753
       797.10000  1.30579e-13      6.02883
       797.20000  1.30579e-13      6.02883
       797.30000  1.30579e-13      6.02883
       797.40000  1.30579e-13      6.02753
       797.50000  4.08967e-13      18.8738
       797.60000  4.08967e-13      18.8697
       797.70000  4.08967e-13      18.8615
       797.80000  4.08967e-13      18.8534
       797.90000  4.08967e-13      18.8452
       798.00000  4.08967e-13      18.8329
       798.10000  4.08967e-13      18.8206
       798.20000  4.08967e-13      18.8084
       798.30000  4.08967e-13      18.7920
       798.40000  4.08967e-13      18.7757
       798.50000  1.94517e-15    0.0892251
       798.60000  1.94517e-15    0.0891278
       798.70000  1.94517e-15    0.0890306
       798.80000  1.94073e-15    0.0887300
       798.90000  1.94073e-15    0.0886136
       799.00000  1.94073e-15    0.0884971
       799.10000  1.94073e-15    0.0885554
       799.20000  1.94073e-15    0.0886330
       799.30000  1.94073e-15    0.0887106
       799.40000  1.94073e-15    0.0887688
       799.50000  4.49895e-13      20.5917
       799.60000  4.49895e-13      20.6052
       799.70000  4.49895e-13      20.6187
       799.80000  4.49895e-13      20.6277
       799.90000  4.49895e-13      20.6367
       800.00000  4.49895e-13      20.6457
       800.10000  4.49895e-13      20.6547
       800.20000  4.49895e-13      20.6637
       800.30000  4.49895e-13      20.6727
       800.40000  4.49895e-13      20.6772
       800.50000  3.94404e-13      18.1307
       800.60000  3.94404e-13      18.1347
       800.70000  3.94404e-13      18.1347
       800.80000  3.94404e-13      18.1386
       800.90000  3.94404e-13      18.1386
       801.00000  3.94404e-13      18.1386
       801.10000  3.94404e-13      18.1307
       801.20000  3.94404e-13      18.1228
       801.30000  3.93246e-13      18.0618
       801.40000  3.93246e-13      18.0539
       801.50000  3.57404e-13      16.4013
       801.60000  3.57404e-13      16.3941
       801.70000  3.57404e-13      16.3870
       801.80000  3.57404e-13      16.3798
       801.90000  3.57404e-13      16.3727
       802.00000  3.57404e-13      16.3655
       802.10000  3.57404e-13      16.3584
       802.20000  3.57404e-13      16.3512
       802.30000  3.57404e-13      16.3441
       802.40000  3.57404e-13      16.3369
       802.50000  2.38814e-13      10.9114
       802.60000  2.38814e-13      10.9066
       802.70000  2.38814e-13      10.9019
       802.80000  2.38814e-13      10.8947
       802.90000  2.38814e-13      10.8899
       803.00000  2.38814e-13      10.8851
       803.10000  2.38814e-13      10.8804
       803.20000  2.38814e-13      10.8756
       803.30000  2.38814e-13      10.8708
       803.40000  2.38814e-13      10.8636
       803.50000  6.94457e-13      31.5769
       803.60000  6.94457e-13      31.5631
       803.70000  6.94457e-13      31.5492
       803.80000  6.92299e-13      31.4373
       803.90000  6.92299e-13      31.4165
       804.00000  6.92299e-13      31.4027
       804.10000  6.92299e-13      31.3888
       804.20000  6.92299e-13      31.3750
       804.30000  6.92299e-13      31.3542
       804.40000  6.92299e-13      31.3404
       804.50000  3.97285e-13      17.9771
       804.60000  3.97285e-13      17.9652
       804.70000  3.97285e-13      17.9573
       804.80000  3.97285e-13      17.9493
       804.90000  3.97285e-13      17.9374
       805.00000  3.97285e-13      17.9295
       805.10000  3.97285e-13      17.9454
       805.20000  3.97285e-13      17.9652
       805.30000  3.97285e-13      17.9771
       805.40000  3.97285e-13      17.9930
       805.50000  4.54929e-13      20.6174
       805.60000  4.54929e-13      20.6310
       805.70000  4.54929e-13      20.6447
       805.80000  4.54929e-13      20.6538
       805.90000  4.54929e-13      20.6629
       806.00000  4.54929e-13      20.6720
       806.10000  4.54929e-13      20.6765
       806.20000  4.54929e-13      20.6811
       806.30000  4.54039e-13      20.6452
       806.40000  4.54039e-13      20.6497
       806.50000  4.44689e-13      20.2244
       806.60000  4.44689e-13      20.2244
       806.70000  4.44689e-13      20.2200
       806.80000  4.44689e-13      20.2200
       806.90000  4.44689e-13      20.2155
       807.00000  4.44689e-13      20.2067
       807.10000  4.44689e-13      20.1711
       807.20000  4.44689e-13      20.1311
       807.30000  4.44689e-13      20.0955
       807.40000  4.44689e-13      20.0644
       807.50000  4.42321e-13      19.9266
       807.60000  4.42321e-13      19.8956
       807.70000  4.42321e-13      19.8691
       807.80000  4.42321e-13      19.8469
       807.90000  4.42321e-13      19.8248
       808.00000  4.42321e-13      19.8027
       808.10000  4.42321e-13      19.7850
       808.20000  4.42321e-13      19.7673
       808.30000  4.42321e-13      19.7496
       808.40000  4.42321e-13      19.7364
       808.50000  1.95827e-13      8.73389
       808.60000  1.95827e-13      8.72997
       808.70000  1.95827e-13      8.72606
       808.80000  1.95642e-13      8.71585
       808.90000  1.95642e-13      8.71389
       809.00000  1.95642e-13      8.71389
       809.10000  1.95642e-13      8.71389
       809.20000  1.95642e-13      8.71585
       809.30000  1.95642e-13      8.71780
       809.40000  1.95642e-13      8.71976
       809.50000  3.34724e-13      14.9254
       809.60000  3.34724e-13      14.9354
       809.70000  3.34724e-13      14.9454
       809.80000  3.34724e-13      14.9555
       809.90000  3.34724e-13      14.9689
       810.00000  3.34724e-13      14.9823
       810.10000  3.34724e-13      14.9990
       810.20000  3.34724e-13      15.0157
       810.30000  3.34724e-13      15.0325
       810.40000  3.34724e-13      15.0526
       810.50000  3.54256e-13      15.9557
       810.60000  3.54256e-13      15.9770
       810.70000  3.54256e-13      16.0053
       810.80000  3.54256e-13      16.0336
       810.90000  3.54256e-13      16.0620
       811.00000  3.54256e-13      16.0939
       811.10000  3.54256e-13      16.0974
       811.20000  3.54256e-13      16.1045
       811.30000  3.54023e-13      16.0974
       811.40000  3.54023e-13      16.1045
       811.50000  3.32165e-13      15.1135
       811.60000  3.32165e-13      15.1168
       811.70000  3.32165e-13      15.1202
       811.80000  3.32165e-13      15.1235
       811.90000  3.32165e-13      15.1268
       812.00000  3.32165e-13      15.1301
       812.10000  3.32165e-13      15.1301
       812.20000  3.32165e-13      15.1335
       812.30000  3.32165e-13      15.1368
       812.40000  3.32165e-13      15.1368
       812.50000  4.37269e-13      19.9264
       812.60000  4.37269e-13      19.9307
       812.70000  4.37269e-13      19.9307
       812.80000  4.37269e-13      19.9307
       812.90000  4.37269e-13      19.9307
       813.00000  4.37269e-13      19.9307
       813.10000  4.37269e-13      19.9220
       813.20000  4.37269e-13      19.9176
       813.30000  4.37269e-13      19.9089
       813.40000  4.37269e-13      19.9045
       813.50000  5.85540e-13      26.6421
       813.60000  5.85540e-13      26.6362
       813.70000  5.85540e-13      26.6304
       813.80000  5.85476e-13      26.6216
       813.90000  5.85476e-13      26.6157
       814.00000  5.85476e-13      26.6040
       814.10000  5.85476e-13      26.5982
       814.20000  5.85476e-13      26.5923
       814.30000  5.85476e-13      26.5865
       814.40000  5.85476e-13      26.5865
       814.50000  1.99329e-13      9.04953
       814.60000  1.99329e-13      9.04753
       814.70000  1.99329e-13      9.04554
       814.80000  1.99329e-13      9.04355
       814.90000  1.99329e-13      9.04355
       815.00000  1.99329e-13      9.04155
       815.10000  1.99329e-13      9.04953
       815.20000  1.99329e-13      9.05551
       815.30000  1.99329e-13      9.06149
       815.40000  1.99329e-13      9.06547
       815.50000  5.17112e-13      23.5338
       815.60000  5.17112e-13      23.5389
       815.70000  5.17112e-13      23.5493
       815.80000  5.17112e-13      23.5493
       815.90000  5.17112e-13      23.5544
       816.00000  5.17112e-13      23.5544
       816.10000  5.17112e-13      23.5544
       816.20000  5.17112e-13      23.5493
       816.30000  5.17097e-13      23.5434
       816.40000  5.17097e-13      23.5383
       816.50000  5.46294e-13      24.8564
       816.60000  5.46294e-13      24.8455
       816.70000  5.46294e-13      24.8291
       816.80000  5.46294e-13      24.8127
       816.90000  5.46294e-13      24.7963
       817.00000  5.46294e-13      24.7744
       817.10000  5.46294e-13      24.6980
       817.20000  5.46294e-13      24.6269
       817.30000  5.46294e-13      24.5614
       817.40000  5.46294e-13      24.4958
       817.50000  2.66523e-13      11.9216
       817.60000  2.66523e-13      11.8949
       817.70000  2.66523e-13      11.8683
       817.80000  2.66523e-13      11.8416
       817.90000  2.66523e-13      11.8203
       818.00000  2.66523e-13      11.7963
       818.10000  2.66523e-13      11.7777
       818.20000  2.66523e-13      11.7590
       818.30000  2.66523e-13      11.7404
       818.40000  2.66523e-13      11.7270
       818.50000  5.50623e-13      24.1944
       818.60000  5.50623e-13      24.1724
       818.70000  5.50623e-13      24.1503
       818.80000  5.50540e-13      24.1247
       818.90000  5.50540e-13      24.1136
       819.00000  5.50540e-13      24.0971
       819.10000  5.50540e-13      24.0916
       819.20000  5.50540e-13      24.0861
       819.30000  5.50540e-13      24.0806
       819.40000  5.50540e-13      24.0806
       819.50000  4.88398e-13      21.3674
       819.60000  4.88398e-13      21.3723
       819.70000  4.88398e-13      21.3820
       819.80000  4.88398e-13      21.3967
       819.90000  4.88398e-13      21.4114
       820.00000  4.88398e-13      21.4309
       820.10000  4.88398e-13      21.4504
       820.20000  4.88398e-13      21.4748
       820.30000  4.88398e-13      21.5041
       820.40000  4.88398e-13      21.5334
       820.50000  2.84587e-13      12.5673
       820.60000  2.84587e-13      12.5873
       820.70000  2.84587e-13      12.6100
       820.80000  2.84587e-13      12.6328
       820.90000  2.84587e-13      12.6584
       821.00000  2.84587e-13      12.6869
       821.10000  2.84587e-13      12.6812
       821.20000  2.84587e-13      12.6783
       821.30000  2.85403e-13      12.7090
       821.40000  2.85403e-13      12.7061
       821.50000  6.77411e-13      30.1448
       821.60000  6.77411e-13      30.1380
       821.70000  6.77411e-13      30.1313
       821.80000  6.77411e-13      30.1177
       821.90000  6.77411e-13      30.1109
       822.00000  6.77411e-13      30.1042
       822.10000  6.77411e-13      30.1042
       822.20000  6.77411e-13      30.0974
       822.30000  6.77411e-13      30.0906
       822.40000  6.77411e-13      30.0906
       822.50000  4.24250e-13      18.8410
       822.60000  4.24250e-13      18.8410
       822.70000  4.24250e-13      18.8367
       822.80000  4.24250e-13      18.8367
       822.90000  4.24250e-13      18.8367
       823.00000  4.24250e-13      18.8367
       823.10000  4.24250e-13      18.8367
       823.20000  4.24250e-13      18.8367
       823.30000  4.24250e-13      18.8367
       823.40000  4.24250e-13      18.8367
       823.50000  3.82132e-13      16.9705
       823.60000  3.82132e-13      16.9705
       823.70000  3.82132e-13      16.9743
       823.80000  3.83174e-13      17.0206
       823.90000  3.83174e-13      17.0244
       824.00000  3.83174e-13      17.0283
       824.10000  3.83174e-13      17.0321
       824.20000  3.83174e-13      17.0359
       824.30000  3.83174e-13      17.0398
       824.40000  3.83174e-13      17.0474
       824.50000  3.74082e-13      16.6467
       824.60000  3.74082e-13      16.6541
       824.70000  3.74082e-13      16.6579
       824.80000  3.74082e-13      16.6654
       824.90000  3.74082e-13      16.6728
       825.00000  3.74082e-13      16.6803
       825.10000  3.74082e-13      16.6878
       825.20000  3.74082e-13      16.6953
       825.30000  3.74082e-13      16.7065
       825.40000  3.74082e-13      16.7140
       825.50000  3.71599e-13      16.6142
       825.60000  3.71599e-13      16.6216
       825.70000  3.71599e-13      16.6328
       825.80000  3.71599e-13      16.6439
       825.90000  3.71599e-13      16.6551
       826.00000  3.71599e-13      16.6662
       826.10000  3.71599e-13      16.6774
       826.20000  3.71599e-13      16.6848
       826.30000  3.71846e-13      16.7071
       826.40000  3.71846e-13      16.7145
       826.50000  3.21670e-13      14.4623
       826.60000  3.21670e-13      14.4687
       826.70000  3.21670e-13      14.4751
       826.80000  3.21670e-13      14.4784
       826.90000  3.21670e-13      14.4816
       827.00000  3.21670e-13      14.4848
       827.10000  3.21670e-13      14.4848
       827.20000  3.21670e-13      14.4880
       827.30000  3.21670e-13      14.4880
       827.40000  3.21670e-13      14.4880
       827.50000  1.70683e-13      7.68756
       827.60000  1.70683e-13      7.68756
       827.70000  1.70683e-13      7.68585
       827.80000  1.70683e-13      7.68414
       827.90000  1.70683e-13      7.68244
       828.00000  1.70683e-13      7.68073
       828.10000  1.70683e-13      7.67561
       828.20000  1.70683e-13      7.66878
       828.30000  1.70683e-13      7.66196
       828.40000  1.70683e-13      7.65513
       828.50000  2.67695e-13      11.9981
       828.60000  2.67695e-13      11.9874
       828.70000  2.67695e-13      11.9794
       828.80000  2.67478e-13      11.9616
       828.90000  2.67478e-13      11.9509
       829.00000  2.67478e-13      11.9429
       829.10000  2.67478e-13      11.9349
       829.20000  2.67478e-13      11.9268
       829.30000  2.67478e-13      11.9188
       829.40000  2.67478e-13      11.9108
       829.50000  2.55521e-13      11.3707
       829.60000  2.55521e-13      11.3630
       829.70000  2.55521e-13      11.3553
       829.80000  2.55521e-13      11.3477
       829.90000  2.55521e-13      11.3426
       830.00000  2.55521e-13      11.3349
       830.10000  2.55521e-13      11.3298
       830.20000  2.55521e-13      11.3221
       830.30000  2.55521e-13      11.3170
       830.40000  2.55521e-13      11.3094
       830.50000  3.18036e-13      14.0699
       830.60000  3.18036e-13      14.0636
       830.70000  3.18036e-13      14.0540
       830.80000  3.18036e-13      14.0477
       830.90000  3.18036e-13      14.0413
       831.00000  3.18036e-13      14.0350
       831.10000  3.18036e-13      14.0286
       831.20000  3.18036e-13      14.0222
       831.30000  3.18899e-13      14.0571
       831.40000  3.18899e-13      14.0507
       831.50000  4.08758e-13      18.0017
       831.60000  4.08758e-13      17.9976
       831.70000  4.08758e-13      17.9894
       831.80000  4.08758e-13      17.9813
       831.90000  4.08758e-13      17.9772
       832.00000  4.08758e-13      17.9731
       832.10000  4.08758e-13      17.9567
       832.20000  4.08758e-13      17.9404
       832.30000  4.08758e-13      17.9281
       832.40000  4.08758e-13      17.9159
       832.50000  2.52682e-13      11.0675
       832.60000  2.52682e-13      11.0624
       832.70000  2.52682e-13      11.0573
       832.80000  2.52682e-13      11.0498
       832.90000  2.52682e-13      11.0472
       833.00000  2.52682e-13      11.0422
       833.10000  2.52682e-13      11.0371
       833.20000  2.52682e-13      11.0346
       833.30000  2.52682e-13      11.0321
       833.40000  2.52682e-13      11.0296
       833.50000  1.55881e-13      6.80421
       833.60000  1.55881e-13      6.80265
       833.70000  1.55881e-13      6.80265
       833.80000  1.56044e-13      6.80975
       833.90000  1.56044e-13      6.81131
       834.00000  1.56044e-13      6.81131
       834.10000  1.56044e-13      6.81912
       834.20000  1.56044e-13      6.82536
       834.30000  1.56044e-13      6.83316
       834.40000  1.56044e-13      6.83940
       834.50000  2.68238e-13      11.7676
       834.60000  2.68238e-13      11.7783
       834.70000  2.68238e-13      11.7864
       834.80000  2.68238e-13      11.7944
       834.90000  2.68238e-13      11.8052
       835.00000  2.68238e-13      11.8132
       835.10000  2.68238e-13      11.8186
       835.20000  2.68238e-13      11.8266
       835.30000  2.68238e-13      11.8320
       835.40000  2.68238e-13      11.8373
       835.50000  1.46436e-13      6.46517
       835.60000  1.46436e-13      6.46810
       835.70000  1.46436e-13      6.46956
       835.80000  1.46436e-13      6.47249
       835.90000  1.46436e-13      6.47396
       836.00000  1.46436e-13      6.47542
       836.10000  1.46436e-13      6.47249
       836.20000  1.46436e-13      6.47103
       836.30000  1.46370e-13      6.46517
       836.40000  1.46370e-13      6.46371
       836.50000  3.05019e-13      13.4666
       836.60000  3.05019e-13      13.4605
       836.70000  3.05019e-13      13.4574
       836.80000  3.05019e-13      13.4544
       836.90000  3.05019e-13      13.4483
       837.00000  3.05019e-13      13.4452
       837.10000  3.05019e-13      13.4422
       837.20000  3.05019e-13      13.4391
       837.30000  3.05019e-13      13.4361
       837.40000  3.05019e-13      13.4330
       837.50000  4.98419e-13      21.9454
       837.60000  4.98419e-13      21.9404
       837.70000  4.98419e-13      21.9354
       837.80000  4.98419e-13      21.9304
       837.90000  4.98419e-13      21.9304
       838.00000  4.98419e-13      21.9254
       838.10000  4.98419e-13      21.9205
       838.20000  4.98419e-13      21.9205
       838.30000  4.98419e-13      21.9205
       838.40000  4.98419e-13      21.9205
       838.50000  3.64097e-13      16.0093
       838.60000  3.64097e-13      16.0093
       838.70000  3.64097e-13      16.0093
       838.80000  3.62996e-13      15.9573
       838.90000  3.62996e-13      15.9573
       839.00000  3.62996e-13      15.9573
       839.10000  3.62996e-13      15.9537
       839.20000  3.62996e-13      15.9537
       839.30000  3.62996e-13      15.9537
       839.40000  3.62996e-13      15.9500
       839.50000  1.67152e-13      7.34467
       839.60000  1.67152e-13      7.34467
       839.70000  1.67152e-13      7.34300
       839.80000  1.67152e-13      7.34300
       839.90000  1.67152e-13      7.34300
       840.00000  1.67152e-13      7.34133
       840.10000  1.67152e-13      7.34133
       840.20000  1.67152e-13      7.34133
       840.30000  1.67152e-13      7.33966
       840.40000  1.67152e-13      7.33966
       840.50000  1.97717e-13      8.68174
       840.60000  1.97717e-13      8.67976
       840.70000  1.97717e-13      8.67976
       840.80000  1.97717e-13      8.67976
       840.90000  1.97717e-13      8.67778
       841.00000  1.97717e-13      8.67778
       841.10000  1.97717e-13      8.67778
       841.20000  1.97717e-13      8.67778
       841.30000  1.97706e-13      8.67534
       841.40000  1.97706e-13      8.67534
       841.50000  2.03881e-13      8.94631
       841.60000  2.03881e-13      8.94428
       841.70000  2.03881e-13      8.94428
       841.80000  2.03881e-13      8.94428
       841.90000  2.03881e-13      8.94224
       842.00000  2.03881e-13      8.94224
       842.10000  2.03881e-13      8.93408
       842.20000  2.03881e-13      8.92797
       842.30000  2.03881e-13      8.92185
       842.40000  2.03881e-13      8.91369
       842.50000  1.17037e-13      5.11335
       842.60000  1.17037e-13      5.11101
       842.70000  1.17037e-13      5.10750
       842.80000  1.17037e-13      5.10516
       842.90000  1.17037e-13      5.10165
       843.00000  1.17037e-13      5.09931
       843.10000  1.17037e-13      5.09697
       843.20000  1.17037e-13      5.09463
       843.30000  1.17037e-13      5.09346
       843.40000  1.17037e-13      5.09111
       843.50000  2.83295e-13      12.3205
       843.60000  2.83295e-13      12.3177
       843.70000  2.83295e-13      12.3148
       843.80000  2.83703e-13      12.3297
       843.90000  2.83703e-13      12.3297
       844.00000  2.83703e-13      12.3269
       844.10000  2.83703e-13      12.3354
       844.20000  2.83703e-13      12.3411
       844.30000  2.83703e-13      12.3468
       844.40000  2.83703e-13      12.3524
       844.50000  1.91107e-13      8.32463
       844.60000  1.91107e-13      8.32845
       844.70000  1.91107e-13      8.33036
       844.80000  1.91107e-13      8.33418
       844.90000  1.91107e-13      8.33609
       845.00000  1.91107e-13      8.33992
       845.10000  1.91107e-13      8.34183
       845.20000  1.91107e-13      8.34374
       845.30000  1.91107e-13      8.34756
       845.40000  1.91107e-13      8.34947
       845.50000  1.42638e-13      6.23184
       845.60000  1.42638e-13      6.23327
       845.70000  1.42638e-13      6.23469
       845.80000  1.42638e-13      6.23612
       845.90000  1.42638e-13      6.23612
       846.00000  1.42638e-13      6.23754
       846.10000  1.42638e-13      6.23754
       846.20000  1.42638e-13      6.23754
       846.30000  1.43013e-13      6.25396
       846.40000  1.43013e-13      6.25539
       846.50000  2.29488e-13      10.0378
       846.60000  2.29488e-13      10.0355
       846.70000  2.29488e-13      10.0355
       846.80000  2.29488e-13      10.0355
       846.90000  2.29488e-13      10.0332
       847.00000  2.29488e-13      10.0332
       847.10000  2.29488e-13      10.0309
       847.20000  2.29488e-13      10.0309
       847.30000  2.29488e-13      10.0286
       847.40000  2.29488e-13      10.0263
       847.50000  1.23170e-13      5.38008
       847.60000  1.23170e-13      5.37885
       847.70000  1.23170e-13      5.37762
       847.80000  1.23170e-13      5.37639
       847.90000  1.23170e-13      5.37393
       848.00000  1.23170e-13      5.37269
       848.10000  1.23170e-13      5.34683
       848.20000  1.23170e-13      5.32342
       848.30000  1.23170e-13      5.30002
       848.40000  1.23170e-13      5.27785
       848.50000  5.42439e-14      2.31513
       848.60000  5.42439e-14      2.30699
       848.70000  5.42439e-14      2.29886
       848.80000  5.44510e-14      2.30001
       848.90000  5.44510e-14      2.29293
       849.00000  5.44510e-14      2.28640
