PDS_VERSION_ID         = PDS3
RECORD_TYPE            = STREAM
OBJECT                 = TEXT
  PUBLICATION_DATE     = 2014-04-25
  INTERCHANGE_FORMAT   = ASCII
  NOTE                 = "System transmission vs. wavelength."
END_OBJECT             = TEXT
END
    
The systrans directory contains the non-wavelength-integrated system 
transmission values (QE*optics*filter1*filter2) for each filter combination. 
The naming convention for these files is as follows:

<camera><filter 1><filter 2>_systrans.tab

where <camera> is "issna" or "isswa," and <filter 1> and <filter 2> represent
the filter names. For polarized filter combinations, values are given for the
parallel orientation of the filter (full transmission), with values for the 
perpendicular (blocking) orientation provided in files with subscript 
"_b_systrans.tab". 

Columns in systrans files are as follows:

 1st column: Wavelength (nm)  
 2nd column: Transmitted Flux
 3rd column: Transmitted Flux * Solar Flux (phot per cm^2-s-angstrom at 1 AU)

The solar spectrum used for this calculation is provided in solarflux.tab.

\begindata
       619.00000  6.00718e-10      31970.2
       619.10000  6.00718e-10      31946.2
       619.20000  6.00718e-10      31934.2
       619.30000  6.00718e-10      31928.2
       619.40000  6.00718e-10      31928.2
       619.50000  9.98098e-10      53068.9
       619.60000  9.98098e-10      53258.5
       619.70000  9.98098e-10      53428.2
       619.80000  9.98098e-10      53577.9
       619.90000  9.98098e-10      53707.7
       620.00000  9.98098e-10      53807.5
       620.10000  9.98098e-10      53887.3
       620.20000  9.98098e-10      53947.2
       620.30000  9.98098e-10      53987.1
       620.40000  9.98098e-10      53997.1
       620.50000  1.19258e-09      64518.6
       620.60000  1.19258e-09      64256.2
       620.70000  1.19258e-09      64005.8
       620.80000  1.19258e-09      63791.1
       620.90000  1.19258e-09      63600.3
       621.00000  1.19258e-09      63433.3
       621.10000  1.19258e-09      63290.2
       621.20000  1.19258e-09      63182.9
       621.30000  1.19105e-09      63006.5
       621.40000  1.19105e-09      62935.0
       621.50000  1.29552e-09      68416.3
       621.60000  1.29552e-09      68649.5
       621.70000  1.29552e-09      68856.8
       621.80000  1.29552e-09      69025.2
       621.90000  1.29552e-09      69180.7
       622.00000  1.29552e-09      69297.3
       622.10000  1.29552e-09      69388.0
       622.20000  1.29552e-09      69439.8
       622.30000  1.29552e-09      69478.7
       622.40000  1.29552e-09      69478.7
       622.50000  2.37435e-09      127289.
       622.60000  2.37435e-09      127194.
       622.70000  2.37435e-09      127052.
       622.80000  2.37435e-09      126862.
       622.90000  2.37435e-09      126600.
       623.00000  2.37435e-09      126315.
       623.10000  2.37435e-09      125959.
       623.20000  2.37435e-09      125532.
       623.30000  2.37435e-09      125081.
       623.40000  2.37435e-09      124558.
       623.50000  4.06133e-09      212123.
       623.60000  4.06133e-09      212082.
       623.70000  4.06133e-09      212082.
       623.80000  4.05258e-09      211545.
       623.90000  4.05258e-09      211504.
       624.00000  4.05258e-09      211423.
       624.10000  4.05258e-09      211302.
       624.20000  4.05258e-09      211180.
       624.30000  4.05258e-09      211058.
       624.40000  4.05258e-09      210896.
       624.50000  5.49977e-09      285988.
       624.60000  5.49977e-09      284888.
       624.70000  5.49977e-09      284008.
       624.80000  5.49977e-09      283238.
       624.90000  5.49977e-09      282633.
       625.00000  5.49977e-09      282193.
       625.10000  5.49977e-09      281918.
       625.20000  5.49977e-09      281753.
       625.30000  5.49977e-09      281808.
       625.40000  5.49977e-09      281973.
       625.50000  1.29941e-08      666988.
       625.60000  1.29941e-08      668028.
       625.70000  1.29941e-08      669587.
       625.80000  1.29941e-08      671406.
       625.90000  1.29941e-08      673615.
       626.00000  1.29941e-08      676214.
       626.10000  1.29941e-08      679202.
       626.20000  1.29941e-08      682451.
       626.30000  1.29736e-08      685137.
       626.40000  1.29736e-08      689159.
       626.50000  3.91193e-08  2.09093e+06
       626.60000  3.91193e-08  2.09132e+06
       626.70000  3.91193e-08  2.09171e+06
       626.80000  3.91193e-08  2.09210e+06
       626.90000  3.91193e-08  2.09249e+06
       627.00000  3.91193e-08  2.09288e+06
       627.10000  3.91193e-08  2.09327e+06
       627.20000  3.91193e-08  2.09327e+06
       627.30000  3.91193e-08  2.09366e+06
       627.40000  3.91193e-08  2.09406e+06
       627.50000  1.16135e-07  6.21785e+06
       627.60000  1.16135e-07  6.22249e+06
       627.70000  1.16135e-07  6.22598e+06
       627.80000  1.16135e-07  6.22830e+06
       627.90000  1.16135e-07  6.23062e+06
       628.00000  1.16135e-07  6.23179e+06
       628.10000  1.16135e-07  6.23295e+06
       628.20000  1.16135e-07  6.23295e+06
       628.30000  1.16135e-07  6.23179e+06
       628.40000  1.16135e-07  6.23062e+06
       628.50000  2.74655e-07  1.47297e+07
       628.60000  2.74655e-07  1.47215e+07
       628.70000  2.74655e-07  1.47133e+07
       628.80000  2.74074e-07  1.46712e+07
       628.90000  2.74074e-07  1.46575e+07
       629.00000  2.74074e-07  1.46438e+07
       629.10000  2.74074e-07  1.46273e+07
       629.20000  2.74074e-07  1.46109e+07
       629.30000  2.74074e-07  1.45917e+07
       629.40000  2.74074e-07  1.45698e+07
       629.50000  2.76522e-07  1.46778e+07
       629.60000  2.76522e-07  1.46474e+07
       629.70000  2.76522e-07  1.46169e+07
       629.80000  2.76522e-07  1.45893e+07
       629.90000  2.76522e-07  1.45644e+07
       630.00000  2.76522e-07  1.45395e+07
       630.10000  2.76522e-07  1.45146e+07
       630.20000  2.76522e-07  1.44953e+07
       630.30000  2.76522e-07  1.44731e+07
       630.40000  2.76522e-07  1.44566e+07
       630.50000  2.69066e-07  1.40506e+07
       630.60000  2.69066e-07  1.40345e+07
       630.70000  2.69066e-07  1.40210e+07
       630.80000  2.69066e-07  1.40102e+07
       630.90000  2.69066e-07  1.39995e+07
       631.00000  2.69066e-07  1.39914e+07
       631.10000  2.69066e-07  1.39995e+07
       631.20000  2.69066e-07  1.40076e+07
       631.30000  2.69053e-07  1.40176e+07
       631.40000  2.69053e-07  1.40257e+07
       631.50000  3.11324e-07  1.62387e+07
       631.60000  3.11324e-07  1.62480e+07
       631.70000  3.11324e-07  1.62574e+07
       631.80000  3.11324e-07  1.62636e+07
       631.90000  3.11324e-07  1.62729e+07
       632.00000  3.11324e-07  1.62823e+07
       632.10000  3.11324e-07  1.62916e+07
       632.20000  3.11324e-07  1.62978e+07
       632.30000  3.11324e-07  1.63072e+07
       632.40000  3.11324e-07  1.63165e+07
       632.50000  3.89450e-07  2.04188e+07
       632.60000  3.89450e-07  2.04266e+07
       632.70000  3.89450e-07  2.04383e+07
       632.80000  3.89450e-07  2.04461e+07
       632.90000  3.89450e-07  2.04539e+07
       633.00000  3.89450e-07  2.04656e+07
       633.10000  3.89450e-07  2.04734e+07
       633.20000  3.89450e-07  2.04812e+07
       633.30000  3.89450e-07  2.04890e+07
       633.40000  3.89450e-07  2.04967e+07
       633.50000  4.64450e-07  2.44533e+07
       633.60000  4.64450e-07  2.44626e+07
       633.70000  4.64450e-07  2.44718e+07
       633.80000  4.64378e-07  2.44727e+07
       633.90000  4.64378e-07  2.44820e+07
       634.00000  4.64378e-07  2.44913e+07
       634.10000  4.64378e-07  2.44960e+07
       634.20000  4.64378e-07  2.45052e+07
       634.30000  4.64378e-07  2.45099e+07
       634.40000  4.64378e-07  2.45192e+07
       634.50000  3.21616e-07  1.69845e+07
       634.60000  3.21616e-07  1.69878e+07
       634.70000  3.21616e-07  1.69942e+07
       634.80000  3.21616e-07  1.69974e+07
       634.90000  3.21616e-07  1.70006e+07
       635.00000  3.21616e-07  1.70038e+07
       635.10000  3.21616e-07  1.70071e+07
       635.20000  3.21616e-07  1.70071e+07
       635.30000  3.21616e-07  1.70103e+07
       635.40000  3.21616e-07  1.70103e+07
       635.50000  2.80505e-07  1.48387e+07
       635.60000  2.80505e-07  1.48415e+07
       635.70000  2.80505e-07  1.48415e+07
       635.80000  2.80505e-07  1.48443e+07
       635.90000  2.80505e-07  1.48443e+07
       636.00000  2.80505e-07  1.48471e+07
       636.10000  2.80505e-07  1.48471e+07
       636.20000  2.80505e-07  1.48499e+07
       636.30000  2.78842e-07  1.47619e+07
       636.40000  2.78842e-07  1.47647e+07
       636.50000  3.35554e-07  1.77676e+07
       636.60000  3.35554e-07  1.77709e+07
       636.70000  3.35554e-07  1.77709e+07
       636.80000  3.35554e-07  1.77743e+07
       636.90000  3.35554e-07  1.77743e+07
       637.00000  3.35554e-07  1.77743e+07
       637.10000  3.35554e-07  1.77776e+07
       637.20000  3.35554e-07  1.77776e+07
       637.30000  3.35554e-07  1.77810e+07
       637.40000  3.35554e-07  1.77810e+07
       637.50000  3.30384e-07  1.75071e+07
       637.60000  3.30384e-07  1.75104e+07
       637.70000  3.30384e-07  1.75104e+07
       637.80000  3.30384e-07  1.75137e+07
       637.90000  3.30384e-07  1.75137e+07
       638.00000  3.30384e-07  1.75137e+07
       638.10000  3.30384e-07  1.75170e+07
       638.20000  3.30384e-07  1.75170e+07
       638.30000  3.30384e-07  1.75170e+07
       638.40000  3.30384e-07  1.75203e+07
       638.50000  2.50275e-07  1.32721e+07
       638.60000  2.50275e-07  1.32721e+07
       638.70000  2.50275e-07  1.32746e+07
       638.80000  2.48634e-07  1.31876e+07
       638.90000  2.48634e-07  1.31876e+07
       639.00000  2.48634e-07  1.31876e+07
       639.10000  2.48634e-07  1.31677e+07
       639.20000  2.48634e-07  1.31478e+07
       639.30000  2.48634e-07  1.31279e+07
       639.40000  2.48634e-07  1.31105e+07
       639.50000  2.07745e-07  1.09378e+07
       639.60000  2.07745e-07  1.09253e+07
       639.70000  2.07745e-07  1.09108e+07
       639.80000  2.07745e-07  1.08983e+07
       639.90000  2.07745e-07  1.08879e+07
       640.00000  2.07745e-07  1.08755e+07
       640.10000  2.07745e-07  1.08651e+07
       640.20000  2.07745e-07  1.08568e+07
       640.30000  2.07745e-07  1.08485e+07
       640.40000  2.07745e-07  1.08401e+07
       640.50000  1.09732e-07  5.72143e+06
       640.60000  1.09732e-07  5.71814e+06
       640.70000  1.09732e-07  5.71485e+06
       640.80000  1.09732e-07  5.71265e+06
       640.90000  1.09732e-07  5.70936e+06
       641.00000  1.09732e-07  5.70826e+06
       641.10000  1.09732e-07  5.71046e+06
       641.20000  1.09732e-07  5.71265e+06
       641.30000  1.08990e-07  5.67619e+06
       641.40000  1.08990e-07  5.67837e+06
       641.50000  8.03227e-08  4.18642e+06
       641.60000  8.03227e-08  4.18803e+06
       641.70000  8.03227e-08  4.18963e+06
       641.80000  8.03227e-08  4.19124e+06
       641.90000  8.03227e-08  4.19285e+06
       642.00000  8.03227e-08  4.19445e+06
       642.10000  8.03227e-08  4.19526e+06
       642.20000  8.03227e-08  4.19686e+06
       642.30000  8.03227e-08  4.19847e+06
       642.40000  8.03227e-08  4.20008e+06
       642.50000  4.23202e-08  2.21377e+06
       642.60000  4.23202e-08  2.21462e+06
       642.70000  4.23202e-08  2.21546e+06
       642.80000  4.23202e-08  2.21631e+06
       642.90000  4.23202e-08  2.21715e+06
       643.00000  4.23202e-08  2.21800e+06
       643.10000  4.23202e-08  2.21842e+06
       643.20000  4.23202e-08  2.21927e+06
       643.30000  4.23202e-08  2.22012e+06
       643.40000  4.23202e-08  2.22096e+06
       643.50000  2.37387e-08  1.24628e+06
       643.60000  2.37387e-08  1.24676e+06
       643.70000  2.37387e-08  1.24699e+06
       643.80000  2.37071e-08  1.24581e+06
       643.90000  2.37071e-08  1.24628e+06
       644.00000  2.37071e-08  1.24676e+06
       644.10000  2.37071e-08  1.24723e+06
       644.20000  2.37071e-08  1.24747e+06
       644.30000  2.37071e-08  1.24794e+06
       644.40000  2.37071e-08  1.24842e+06
       644.50000  8.86691e-09      467109.
       644.60000  8.86691e-09      467198.
       644.70000  8.86691e-09      467375.
       644.80000  8.86691e-09      467552.
       644.90000  8.86691e-09      467730.
       645.00000  8.86691e-09      467818.
       645.10000  8.86691e-09      467730.
       645.20000  8.86691e-09      467552.
       645.30000  8.86691e-09      467464.
       645.40000  8.86691e-09      467286.
       645.50000  3.94554e-09      207811.
       645.60000  3.94554e-09      207732.
       645.70000  3.94554e-09      207654.
       645.80000  3.94554e-09      207535.
       645.90000  3.94554e-09      207417.
       646.00000  3.94554e-09      207298.
       646.10000  3.94554e-09      207180.
       646.20000  3.94554e-09      207062.
       646.30000  3.94312e-09      206777.
       646.40000  3.94312e-09      206619.
       646.50000  4.56519e-09      239079.
       646.60000  4.56519e-09      238851.
       646.70000  4.56519e-09      238668.
       646.80000  4.56519e-09      238486.
       646.90000  4.56519e-09      238257.
       647.00000  4.56519e-09      238075.
       647.10000  4.56519e-09      237436.
       647.20000  4.56519e-09      236842.
       647.30000  4.56519e-09      236294.
       647.40000  4.56519e-09      235747.
       647.50000  2.25823e-09      116367.
       647.60000  2.25823e-09      116163.
       647.70000  2.25823e-09      115938.
       647.80000  2.25823e-09      115757.
       647.90000  2.25823e-09      115576.
       648.00000  2.25823e-09      115418.
       648.10000  2.25823e-09      115283.
       648.20000  2.25823e-09      115170.
       648.30000  2.25823e-09      115057.
       648.40000  2.25823e-09      114967.
       648.50000  1.02775e-09      52291.8
       648.60000  1.02775e-09      52271.2
       648.70000  1.02775e-09      52250.7
       648.80000  1.02881e-09      52294.4
       648.90000  1.02881e-09      52294.4
       649.00000  1.02881e-09      52304.7
       649.10000  1.02881e-09      52315.0
       649.20000  1.02881e-09      52345.9
       649.30000  1.02881e-09      52366.4
       649.40000  1.02881e-09      52407.6
       649.50000  1.11397e-09      56801.1
       649.60000  1.11397e-09      56856.8
       649.70000  1.11397e-09      56923.6
       649.80000  1.11397e-09      57001.6
       649.90000  1.11397e-09      57079.6
       650.00000  1.11397e-09      57168.7
       650.10000  1.11397e-09      57269.0
       650.20000  1.11397e-09      57380.4
       650.30000  1.11397e-09      57502.9
       650.40000  1.11397e-09      57625.4
       650.50000  5.23674e-10      27152.5
       650.60000  5.23674e-10      27220.6
       650.70000  5.23674e-10      27288.6
       650.80000  5.23674e-10      27367.2
       650.90000  5.23674e-10      27445.7
       651.00000  5.23674e-10      27529.5
       651.10000  5.23674e-10      27550.5
       651.20000  5.23674e-10      27571.4
       651.30000  5.23017e-10      27552.5
       651.40000  5.23017e-10      27568.2
       651.50000  4.48761e-10      23667.6
       651.60000  4.48761e-10      23672.1
       651.70000  4.48761e-10      23681.1
       651.80000  4.48761e-10      23685.6
       651.90000  4.48761e-10      23685.6
       652.00000  4.48761e-10      23685.6
       652.10000  4.48761e-10      23681.1
       652.20000  4.48761e-10      23676.6
       652.30000  4.48761e-10      23672.1
       652.40000  4.48761e-10      23663.2
       652.50000  2.23582e-10      11782.8
       652.60000  2.23582e-10      11776.1
       652.70000  2.23582e-10      11769.4
       652.80000  2.23582e-10      11758.2
       652.90000  2.23582e-10      11749.2
       653.00000  2.23582e-10      11738.1
       653.10000  2.23582e-10      11729.1
       653.20000  2.23582e-10      11720.2
       653.30000  2.23582e-10      11706.8
       653.40000  2.23582e-10      11693.3
       653.50000  1.90610e-10      9957.46
       653.60000  1.90610e-10      9944.12
       653.70000  1.90610e-10      9928.87
       653.80000  1.90378e-10      9899.64
       653.90000  1.90378e-10      9882.50
       654.00000  1.90378e-10      9863.47
       654.10000  1.90378e-10      9844.43
       654.20000  1.90378e-10      9821.58
       654.30000  1.90378e-10      9798.74
       654.40000  1.90378e-10      9775.89
       654.50000  1.07154e-10      5488.45
       654.60000  1.07154e-10      5473.45
       654.70000  1.07154e-10      5457.37
       654.80000  1.07154e-10      5441.30
       654.90000  1.07154e-10      5424.16
       655.00000  1.07154e-10      5405.94
       655.10000  1.07154e-10      5354.51
       655.20000  1.07154e-10      5305.21
       655.30000  1.07154e-10      5259.14
       655.40000  1.07154e-10      5216.28
       655.50000  1.01254e-10      4890.55
       655.60000  1.01254e-10      4855.11
       655.70000  1.01254e-10      4821.70
       655.80000  1.01254e-10      4791.32
       655.90000  1.01254e-10      4762.97
       656.00000  1.01254e-10      4737.66
       656.10000  1.01254e-10      4715.38
       656.20000  1.01254e-10      4695.13
       656.30000  1.01177e-10      4674.36
       656.40000  1.01177e-10      4659.18
       656.50000  8.17949e-11      3756.84
       656.60000  8.17949e-11      3749.48
       656.70000  8.17949e-11      3743.75
       656.80000  8.17949e-11      3740.48
       656.90000  8.17949e-11      3738.85
       657.00000  8.17949e-11      3739.66
       657.10000  8.17949e-11      3771.56
       657.20000  8.17949e-11      3802.65
       657.30000  8.17949e-11      3832.91
       657.40000  8.17949e-11      3862.36
       657.50000  6.40364e-11      3045.57
       657.60000  6.40364e-11      3067.35
       657.70000  6.40364e-11      3087.84
       657.80000  6.40364e-11      3107.69
       657.90000  6.40364e-11      3126.26
       658.00000  6.40364e-11      3144.83
       658.10000  6.40364e-11      3162.76
       658.20000  6.40364e-11      3179.41
       658.30000  6.40364e-11      3195.42
       658.40000  6.40364e-11      3210.79
       658.50000  3.82142e-11      1924.47
       658.60000  3.82142e-11      1932.87
       658.70000  3.82142e-11      1940.52
       658.80000  3.81745e-11      1946.13
       658.90000  3.81745e-11      1953.01
       659.00000  3.81745e-11      1959.11
       659.10000  3.81745e-11      1965.22
       659.20000  3.81745e-11      1970.95
       659.30000  3.81745e-11      1975.91
       659.40000  3.81745e-11      1980.49
       659.50000  4.45452e-11      2315.91
       659.60000  4.45452e-11      2320.36
       659.70000  4.45452e-11      2323.93
       659.80000  4.45452e-11      2327.49
       659.90000  4.45452e-11      2330.16
       660.00000  4.45452e-11      2332.39
       660.10000  4.45452e-11      2334.17
       660.20000  4.45452e-11      2335.06
       660.30000  4.45452e-11      2335.95
       660.40000  4.45452e-11      2335.95
       660.50000  3.40479e-11      1785.13
       660.60000  3.40479e-11      1784.45
       660.70000  3.40479e-11      1783.43
       660.80000  3.40479e-11      1781.73
       660.90000  3.40479e-11      1780.03
       661.00000  3.40479e-11      1777.64
       661.10000  3.40479e-11      1776.62
       661.20000  3.40479e-11      1775.26
       661.30000  3.39634e-11      1769.83
       661.40000  3.39634e-11      1768.81
       661.50000  2.88681e-11      1502.58
       661.60000  2.88681e-11      1502.01
       661.70000  2.88681e-11      1501.14
       661.80000  2.88681e-11      1500.56
       661.90000  2.88681e-11      1499.99
       662.00000  2.88681e-11      1499.41
       662.10000  2.88681e-11      1498.83
       662.20000  2.88681e-11      1498.25
       662.30000  2.88681e-11      1497.97
       662.40000  2.88681e-11      1497.68
       662.50000  2.40855e-11      1249.07
       662.60000  2.40855e-11      1249.07
       662.70000  2.40855e-11      1248.83
       662.80000  2.40855e-11      1248.59
       662.90000  2.40855e-11      1248.59
       663.00000  2.40855e-11      1248.59
       663.10000  2.40855e-11      1249.55
       663.20000  2.40855e-11      1250.28
       663.30000  2.40855e-11      1251.24
       663.40000  2.40855e-11      1251.96
       663.50000  1.68466e-11      876.192
       663.60000  1.68466e-11      876.698
       663.70000  1.68466e-11      877.035
       663.80000  1.68107e-11      875.669
       663.90000  1.68107e-11      876.005
       664.00000  1.68107e-11      876.173
       664.10000  1.68107e-11      876.509
       664.20000  1.68107e-11      876.677
       664.30000  1.68107e-11      876.845
       664.40000  1.68107e-11      877.013
       664.50000  1.19959e-11      625.826
       664.60000  1.19959e-11      625.826
       664.70000  1.19959e-11      625.826
       664.80000  1.19959e-11      625.826
       664.90000  1.19959e-11      625.826
       665.00000  1.19959e-11      625.706
       665.10000  1.19959e-11      625.586
       665.20000  1.19959e-11      625.466
       665.30000  1.19959e-11      625.226
       665.40000  1.19959e-11      624.986
       665.50000  1.01263e-11      527.377
       665.60000  1.01263e-11      527.174
       665.70000  1.01263e-11      526.870
       665.80000  1.01263e-11      526.668
       665.90000  1.01263e-11      526.364
       666.00000  1.01263e-11      525.959
       666.10000  1.01263e-11      525.655
       666.20000  1.01263e-11      525.250
       666.30000  1.01008e-11      523.527
       666.40000  1.01008e-11      523.123
       666.50000  6.27901e-12      324.876
       666.60000  6.27901e-12      324.562
       666.70000  6.27901e-12      324.248
       666.80000  6.27901e-12      323.934
       666.90000  6.27901e-12      323.620
       667.00000  6.27901e-12      323.243
       667.10000  6.27901e-12      323.620
       667.20000  6.27901e-12      323.934
       667.30000  6.27901e-12      324.248
       667.40000  6.27901e-12      324.562
       667.50000  4.83193e-12      250.004
       667.60000  4.83193e-12      250.197
       667.70000  4.83193e-12      250.390
       667.80000  4.83193e-12      250.535
       667.90000  4.83193e-12      250.680
       668.00000  4.83193e-12      250.825
       668.10000  4.83193e-12      250.970
       668.20000  4.83193e-12      251.067
       668.30000  4.83193e-12      251.163
       668.40000  4.83193e-12      251.212
       668.50000  7.84851e-12      408.123
       668.60000  7.84851e-12      408.201
       668.70000  7.84851e-12      408.201
       668.80000  7.83568e-12      407.533
       668.90000  7.83568e-12      407.533
       669.00000  7.83568e-12      407.455
       669.10000  7.83568e-12      406.907
       669.20000  7.83568e-12      406.358
       669.30000  7.83568e-12      405.888
       669.40000  7.83568e-12      405.418
       669.50000  6.90057e-12      356.622
       669.60000  6.90057e-12      356.208
       669.70000  6.90057e-12      355.863
       669.80000  6.90057e-12      355.518
       669.90000  6.90057e-12      355.173
       670.00000  6.90057e-12      354.897
       670.10000  6.90057e-12      354.620
       670.20000  6.90057e-12      354.344
       670.30000  6.90057e-12      354.068
       670.40000  6.90057e-12      353.861
       670.50000  3.45359e-12      176.997
       670.60000  3.45359e-12      176.893
       670.70000  3.45359e-12      176.824
       670.80000  3.45359e-12      176.755
       670.90000  3.45359e-12      176.686
       671.00000  3.45359e-12      176.651
       671.10000  3.45359e-12      176.582
       671.20000  3.45359e-12      176.582
       671.30000  3.45372e-12      176.554
       671.40000  3.45372e-12      176.554
       671.50000  3.58038e-12      183.029
       671.60000  3.58038e-12      183.029
       671.70000  3.58038e-12      183.029
       671.80000  3.58038e-12      183.065
       671.90000  3.58038e-12      183.101
       672.00000  3.58038e-12      183.172
       672.10000  3.58038e-12      183.244
       672.20000  3.58038e-12      183.315
       672.30000  3.58038e-12      183.387
       672.40000  3.58038e-12      183.495
       672.50000  3.12326e-12      160.161
       672.60000  3.12326e-12      160.255
       672.70000  3.12326e-12      160.348
       672.80000  3.12326e-12      160.473
       672.90000  3.12326e-12      160.598
       673.00000  3.12326e-12      160.754
       673.10000  3.12326e-12      160.692
       673.20000  3.12326e-12      160.629
       673.30000  3.12326e-12      160.567
       673.40000  3.12326e-12      160.536
       673.50000  2.62526e-12      134.886
       673.60000  2.62526e-12      134.860
       673.70000  2.62526e-12      134.833
       673.80000  2.62631e-12      134.835
       673.90000  2.62631e-12      134.809
       674.00000  2.62631e-12      134.782
       674.10000  2.62631e-12      134.756
       674.20000  2.62631e-12      134.730
       674.30000  2.62631e-12      134.703
       674.40000  2.62631e-12      134.677
       674.50000  1.98122e-12      101.577
       674.60000  1.98122e-12      101.577
       674.70000  1.98122e-12      101.557
       674.80000  1.98122e-12      101.557
       674.90000  1.98122e-12      101.538
       675.00000  1.98122e-12      101.538
       675.10000  1.98122e-12      101.557
       675.20000  1.98122e-12      101.577
       675.30000  1.98122e-12      101.597
       675.40000  1.98122e-12      101.617
       675.50000  2.11142e-12      108.295
       675.60000  2.11142e-12      108.316
       675.70000  2.11142e-12      108.337
       675.80000  2.11142e-12      108.337
       675.90000  2.11142e-12      108.358
       676.00000  2.11142e-12      108.358
       676.10000  2.11142e-12      108.379
       676.20000  2.11142e-12      108.379
       676.30000  2.10927e-12      108.269
       676.40000  2.10927e-12      108.269
       676.50000  1.78444e-12      91.6133
       676.60000  1.78444e-12      91.6133
       676.70000  1.78444e-12      91.6133
       676.80000  1.78444e-12      91.5955
       676.90000  1.78444e-12      91.5955
       677.00000  1.78444e-12      91.5955
       677.10000  1.78444e-12      91.5955
       677.20000  1.78444e-12      91.5777
       677.30000  1.78444e-12      91.5777
       677.40000  1.78444e-12      91.5598
       677.50000  2.35667e-12      120.921
       677.60000  2.35667e-12      120.897
       677.70000  2.35667e-12      120.897
       677.80000  2.35667e-12      120.874
       677.90000  2.35667e-12      120.850
       678.00000  2.35667e-12      120.827
       678.10000  2.35667e-12      120.803
       678.20000  2.35667e-12      120.780
       678.30000  2.35667e-12      120.756
       678.40000  2.35667e-12      120.732
       678.50000  2.89633e-12      148.321
       678.60000  2.89633e-12      148.292
       678.70000  2.89633e-12      148.263
       678.80000  2.89611e-12      148.194
       678.90000  2.89611e-12      148.165
       679.00000  2.89611e-12      148.107
       679.10000  2.89611e-12      148.107
       679.20000  2.89611e-12      148.136
       679.30000  2.89611e-12      148.136
       679.40000  2.89611e-12      148.136
       679.50000  1.79903e-12      92.0204
       679.60000  1.79903e-12      92.0204
       679.70000  1.79903e-12      92.0204
       679.80000  1.79903e-12      92.0204
       679.90000  1.79903e-12      92.0204
       680.00000  1.79903e-12      92.0024
       680.10000  1.79903e-12      92.0024
       680.20000  1.79903e-12      92.0024
       680.30000  1.79903e-12      91.9844
       680.40000  1.79903e-12      91.9844
       680.50000  1.98064e-12      101.250
       680.60000  1.98064e-12      101.250
       680.70000  1.98064e-12      101.231
       680.80000  1.98064e-12      101.211
       680.90000  1.98064e-12      101.191
       681.00000  1.98064e-12      101.191
       681.10000  1.98064e-12      101.171
       681.20000  1.98064e-12      101.151
       681.30000  1.98045e-12      101.142
       681.40000  1.98045e-12      101.122
       681.50000  2.93479e-12      149.821
       681.60000  2.93479e-12      149.792
       681.70000  2.93479e-12      149.762
       681.80000  2.93479e-12      149.704
       681.90000  2.93479e-12      149.674
       682.00000  2.93479e-12      149.645
       682.10000  2.93479e-12      149.586
       682.20000  2.93479e-12      149.528
       682.30000  2.93479e-12      149.498
       682.40000  2.93479e-12      149.439
       682.50000  2.29290e-12      116.708
       682.60000  2.29290e-12      116.663
       682.70000  2.29290e-12      116.617
       682.80000  2.29290e-12      116.571
       682.90000  2.29290e-12      116.502
       683.00000  2.29290e-12      116.456
       683.10000  2.29290e-12      116.410
       683.20000  2.29290e-12      116.342
       683.30000  2.29290e-12      116.273
       683.40000  2.29290e-12      116.204
       683.50000  2.93647e-12      148.762
       683.60000  2.93647e-12      148.674
       683.70000  2.93647e-12      148.586
       683.80000  2.93422e-12      148.354
       683.90000  2.93422e-12      148.266
       684.00000  2.93422e-12      148.178
       684.10000  2.93422e-12      148.061
       684.20000  2.93422e-12      147.973
       684.30000  2.93422e-12      147.856
       684.40000  2.93422e-12      147.768
       684.50000  1.93506e-12      97.3721
       684.60000  1.93506e-12      97.2946
       684.70000  1.93506e-12      97.2172
       684.80000  1.93506e-12      97.1398
       684.90000  1.93506e-12      97.0431
       685.00000  1.93506e-12      96.9657
       685.10000  1.93506e-12      97.0431
       685.20000  1.93506e-12      97.1398
       685.30000  1.93506e-12      97.2172
       685.40000  1.93506e-12      97.2753
       685.50000  2.41632e-12      121.565
       685.60000  2.41632e-12      121.661
       685.70000  2.41632e-12      121.734
       685.80000  2.41632e-12      121.806
       685.90000  2.41632e-12      121.879
       686.00000  2.41632e-12      121.951
       686.10000  2.41632e-12      122.024
       686.20000  2.41632e-12      122.072
       686.30000  2.41378e-12      122.016
       686.40000  2.41378e-12      122.065
       686.50000  1.79946e-12      91.0347
       686.60000  1.79946e-12      91.0707
       686.70000  1.79946e-12      91.1067
       686.80000  1.79946e-12      91.1247
       686.90000  1.79946e-12      91.1607
       687.00000  1.79946e-12      91.1787
       687.10000  1.79946e-12      91.1967
       687.20000  1.79946e-12      91.1967
       687.30000  1.79946e-12      91.1967
       687.40000  1.79946e-12      91.1967
       687.50000  1.93118e-12      97.8723
       687.60000  1.93118e-12      97.8723
       687.70000  1.93118e-12      97.8723
       687.80000  1.93118e-12      97.8723
       687.90000  1.93118e-12      97.8723
       688.00000  1.93118e-12      97.8530
       688.10000  1.93118e-12      97.8530
       688.20000  1.93118e-12      97.8530
       688.30000  1.93118e-12      97.8337
       688.40000  1.93118e-12      97.8337
       688.50000  1.73299e-12      87.7761
       688.60000  1.73299e-12      87.7587
       688.70000  1.73299e-12      87.7587
       688.80000  1.73078e-12      87.6295
       688.90000  1.73078e-12      87.6122
       689.00000  1.73078e-12      87.5949
       689.10000  1.73078e-12      87.5776
       689.20000  1.73078e-12      87.5603
       689.30000  1.73078e-12      87.5430
       689.40000  1.73078e-12      87.5257
       689.50000  1.15435e-12      58.3637
       689.60000  1.15435e-12      58.3522
       689.70000  1.15435e-12      58.3291
       689.80000  1.15435e-12      58.3176
       689.90000  1.15435e-12      58.3060
       690.00000  1.15435e-12      58.2829
       690.10000  1.15435e-12      58.2598
       690.20000  1.15435e-12      58.2483
       690.30000  1.15435e-12      58.2252
       690.40000  1.15435e-12      58.2021
       690.50000  1.20448e-12      60.7180
       690.60000  1.20448e-12      60.6939
       690.70000  1.20448e-12      60.6698
       690.80000  1.20448e-12      60.6457
       690.90000  1.20448e-12      60.6216
       691.00000  1.20448e-12      60.5976
       691.10000  1.20448e-12      60.6216
       691.20000  1.20448e-12      60.6337
       691.30000  1.20333e-12      60.5999
       691.40000  1.20333e-12      60.6119
       691.50000  5.39648e-13      27.1875
       691.60000  5.39648e-13      27.1983
       691.70000  5.39648e-13      27.2037
       691.80000  5.39648e-13      27.2091
       691.90000  5.39648e-13      27.2145
       692.00000  5.39648e-13      27.2145
       692.10000  5.39648e-13      27.2199
       692.20000  5.39648e-13      27.2253
       692.30000  5.39648e-13      27.2253
       692.40000  5.39648e-13      27.2253
       692.50000  9.52454e-13      48.0608
       692.60000  9.52454e-13      48.0608
       692.70000  9.52454e-13      48.0608
       692.80000  9.52454e-13      48.0608
       692.90000  9.52454e-13      48.0608
       693.00000  9.52454e-13      48.0513
       693.10000  9.52454e-13      48.0513
       693.20000  9.52454e-13      48.0418
       693.30000  9.52454e-13      48.0322
       693.40000  9.52454e-13      48.0227
       693.50000  7.52301e-13      37.9235
       693.60000  7.52301e-13      37.9160
       693.70000  7.52301e-13      37.9085
       693.80000  7.49317e-13      37.7506
       693.90000  7.49317e-13      37.7356
       694.00000  7.49317e-13      37.7281
       694.10000  7.49317e-13      37.7206
       694.20000  7.49317e-13      37.7056
       694.30000  7.49317e-13      37.6981
       694.40000  7.49317e-13      37.6831
       694.50000  4.12818e-13      20.7524
       694.60000  4.12818e-13      20.7482
       694.70000  4.12818e-13      20.7400
       694.80000  4.12818e-13      20.7317
       694.90000  4.12818e-13      20.7235
       695.00000  4.12818e-13      20.7152
       695.10000  4.12818e-13      20.7070
       695.20000  4.12818e-13      20.6987
       695.30000  4.12818e-13      20.6863
       695.40000  4.12818e-13      20.6781
       695.50000  8.82836e-13      44.2036
       695.60000  8.82836e-13      44.1771
       695.70000  8.82836e-13      44.1595
       695.80000  8.82836e-13      44.1330
       695.90000  8.82836e-13      44.1065
       696.00000  8.82836e-13      44.0888
       696.10000  8.82836e-13      44.0623
       696.20000  8.82836e-13      44.0359
       696.30000  8.81969e-13      43.9662
       696.40000  8.81969e-13      43.9397
       696.50000  8.35327e-13      41.5909
       696.60000  8.35327e-13      41.5659
       696.70000  8.35327e-13      41.5325
       696.80000  8.35327e-13      41.5074
       696.90000  8.35327e-13      41.4823
       697.00000  8.35327e-13      41.4489
       697.10000  8.35327e-13      41.5074
       697.20000  8.35327e-13      41.5492
       697.30000  8.35327e-13      41.5993
       697.40000  8.35327e-13      41.6411
       697.50000  6.94316e-13      34.6464
       697.60000  6.94316e-13      34.6741
       697.70000  6.94316e-13      34.7019
       697.80000  6.94316e-13      34.7227
       697.90000  6.94316e-13      34.7436
       698.00000  6.94316e-13      34.7574
       698.10000  6.94316e-13      34.7713
       698.20000  6.94316e-13      34.7852
       698.30000  6.94316e-13      34.7922
       698.40000  6.94316e-13      34.7991
       698.50000  6.06100e-13      30.3838
       698.60000  6.06100e-13      30.3838
       698.70000  6.06100e-13      30.3777
       698.80000  6.05065e-13      30.3198
       698.90000  6.05065e-13      30.3138
       699.00000  6.05065e-13      30.3017
       699.10000  6.05065e-13      30.2472
       699.20000  6.05065e-13      30.1867
       699.30000  6.05065e-13      30.1383
       699.40000  6.05065e-13      30.0839
       699.50000  6.90368e-13      34.2699
       699.60000  6.90368e-13      34.2147
       699.70000  6.90368e-13      34.1663
       699.80000  6.90368e-13      34.1180
       699.90000  6.90368e-13      34.0697
       700.00000  6.90368e-13      34.0283
       700.10000  6.90368e-13      33.9868
       700.20000  6.90368e-13      33.9454
       700.30000  6.90368e-13      33.9109
       700.40000  6.90368e-13      33.8764
       700.50000  4.11020e-13      20.1482
       700.60000  4.11020e-13      20.1317
       700.70000  4.11020e-13      20.1153
       700.80000  4.11020e-13      20.1030
       700.90000  4.11020e-13      20.0906
       701.00000  4.11020e-13      20.0783
       701.10000  4.11020e-13      20.0742
       701.20000  4.11020e-13      20.0701
       701.30000  4.10739e-13      20.0523
       701.40000  4.10739e-13      20.0523
       701.50000  7.55400e-13      36.8786
       701.60000  7.55400e-13      36.8786
       701.70000  7.55400e-13      36.8786
       701.80000  7.55400e-13      36.8862
       701.90000  7.55400e-13      36.8862
       702.00000  7.55400e-13      36.8937
       702.10000  7.55400e-13      36.9088
       702.20000  7.55400e-13      36.9164
       702.30000  7.55400e-13      36.9315
       702.40000  7.55400e-13      36.9391
       702.50000  5.48771e-13      26.8459
       702.60000  5.48771e-13      26.8624
       702.70000  5.48771e-13      26.8733
       702.80000  5.48771e-13      26.8898
       702.90000  5.48771e-13      26.9063
       703.00000  5.48771e-13      26.9227
       703.10000  5.48771e-13      26.9721
       703.20000  5.48771e-13      27.0215
       703.30000  5.48771e-13      27.0654
       703.40000  5.48771e-13      27.1093
       703.50000  3.55571e-13      17.5901
       703.60000  3.55571e-13      17.6185
       703.70000  3.55571e-13      17.6399
       703.80000  3.54614e-13      17.6172
       703.90000  3.54614e-13      17.6385
       704.00000  3.54614e-13      17.6562
       704.10000  3.54614e-13      17.6775
       704.20000  3.54614e-13      17.6952
       704.30000  3.54614e-13      17.7094
       704.40000  3.54614e-13      17.7236
       704.50000  6.79084e-13      33.9678
       704.60000  6.79084e-13      33.9949
       704.70000  6.79084e-13      34.0153
       704.80000  6.79084e-13      34.0289
       704.90000  6.79084e-13      34.0493
       705.00000  6.79084e-13      34.0629
       705.10000  6.79084e-13      34.0696
       705.20000  6.79084e-13      34.0764
       705.30000  6.79084e-13      34.0832
       705.40000  6.79084e-13      34.0900
       705.50000  4.18033e-13      20.9853
       705.60000  4.18033e-13      20.9853
       705.70000  4.18033e-13      20.9811
       705.80000  4.18033e-13      20.9769
       705.90000  4.18033e-13      20.9727
       706.00000  4.18033e-13      20.9644
       706.10000  4.18033e-13      20.9560
       706.20000  4.18033e-13      20.9435
       706.30000  4.18348e-13      20.9467
       706.40000  4.18348e-13      20.9341
       706.50000  3.03680e-13      15.1840
       706.60000  3.03680e-13      15.1719
       706.70000  3.03680e-13      15.1597
       706.80000  3.03680e-13      15.1445
       706.90000  3.03680e-13      15.1293
       707.00000  3.03680e-13      15.1142
       707.10000  3.03680e-13      15.1020
       707.20000  3.03680e-13      15.0929
       707.30000  3.03680e-13      15.0808
       707.40000  3.03680e-13      15.0716
       707.50000  4.25235e-13      21.0916
       707.60000  4.25235e-13      21.0789
       707.70000  4.25235e-13      21.0704
       707.80000  4.25235e-13      21.0576
       707.90000  4.25235e-13      21.0491
       708.00000  4.25235e-13      21.0406
       708.10000  4.25235e-13      21.0321
       708.20000  4.25235e-13      21.0236
       708.30000  4.25235e-13      21.0151
       708.40000  4.25235e-13      21.0066
       708.50000  5.11440e-13      25.2600
       708.60000  5.11440e-13      25.2498
       708.70000  5.11440e-13      25.2447
       708.80000  5.09699e-13      25.1536
       708.90000  5.09699e-13      25.1485
       709.00000  5.09699e-13      25.1485
       709.10000  5.09699e-13      25.1587
       709.20000  5.09699e-13      25.1689
       709.30000  5.09699e-13      25.1740
       709.40000  5.09699e-13      25.1842
       709.50000  6.46996e-13      31.9746
       709.60000  6.46996e-13      31.9875
       709.70000  6.46996e-13      31.9940
       709.80000  6.46996e-13      32.0004
       709.90000  6.46996e-13      32.0069
       710.00000  6.46996e-13      32.0134
       710.10000  6.46996e-13      32.0199
       710.20000  6.46996e-13      32.0263
       710.30000  6.46996e-13      32.0263
       710.40000  6.46996e-13      32.0328
       710.50000  3.61960e-13      17.9206
       710.60000  3.61960e-13      17.9206
       710.70000  3.61960e-13      17.9206
       710.80000  3.61960e-13      17.9206
       710.90000  3.61960e-13      17.9206
       711.00000  3.61960e-13      17.9206
       711.10000  3.61960e-13      17.9206
       711.20000  3.61960e-13      17.9170
       711.30000  3.62038e-13      17.9209
       711.40000  3.62038e-13      17.9173
       711.50000  6.40380e-13      31.6860
       711.60000  6.40380e-13      31.6796
       711.70000  6.40380e-13      31.6732
       711.80000  6.40380e-13      31.6668
       711.90000  6.40380e-13      31.6604
       712.00000  6.40380e-13      31.6476
       712.10000  6.40380e-13      31.6412
       712.20000  6.40380e-13      31.6284
       712.30000  6.40380e-13      31.6220
       712.40000  6.40380e-13      31.6092
       712.50000  6.50527e-13      32.0970
       712.60000  6.50527e-13      32.0840
       712.70000  6.50527e-13      32.0645
       712.80000  6.50527e-13      32.0514
       712.90000  6.50527e-13      32.0384
       713.00000  6.50527e-13      32.0189
       713.10000  6.50527e-13      32.0189
       713.20000  6.50527e-13      32.0189
       713.30000  6.50527e-13      32.0189
       713.40000  6.50527e-13      32.0124
       713.50000  5.71245e-13      28.1110
       713.60000  5.71245e-13      28.1110
       713.70000  5.71245e-13      28.1053
       713.80000  5.71112e-13      28.0987
       713.90000  5.71112e-13      28.0930
       714.00000  5.71112e-13      28.0930
       714.10000  5.71112e-13      28.0873
       714.20000  5.71112e-13      28.0816
       714.30000  5.71112e-13      28.0816
       714.40000  5.71112e-13      28.0759
       714.50000  3.12785e-13      15.3734
       714.60000  3.12785e-13      15.3703
       714.70000  3.12785e-13      15.3703
       714.80000  3.12785e-13      15.3671
       714.90000  3.12785e-13      15.3640
       715.00000  3.12785e-13      15.3609
       715.10000  3.12785e-13      15.3577
       715.20000  3.12785e-13      15.3577
       715.30000  3.12785e-13      15.3577
       715.40000  3.12785e-13      15.3546
       715.50000  8.07852e-13      39.6494
       715.60000  8.07852e-13      39.6413
       715.70000  8.07852e-13      39.6332
       715.80000  8.07852e-13      39.6251
       715.90000  8.07852e-13      39.6170
       716.00000  8.07852e-13      39.6009
       716.10000  8.07852e-13      39.5928
       716.20000  8.07852e-13      39.5766
       716.30000  8.06687e-13      39.5035
       716.40000  8.06687e-13      39.4873
       716.50000  3.44820e-13      16.8721
       716.60000  3.44820e-13      16.8652
       716.70000  3.44820e-13      16.8583
       716.80000  3.44820e-13      16.8479
       716.90000  3.44820e-13      16.8410
       717.00000  3.44820e-13      16.8307
       717.10000  3.44820e-13      16.8203
       717.20000  3.44820e-13      16.8100
       717.30000  3.44820e-13      16.7996
       717.40000  3.44820e-13      16.7893
       717.50000  3.94874e-13      19.2146
       717.60000  3.94874e-13      19.1988
       717.70000  3.94874e-13      19.1869
       717.80000  3.94874e-13      19.1711
       717.90000  3.94874e-13      19.1553
       718.00000  3.94874e-13      19.1395
       718.10000  3.94874e-13      19.1237
       718.20000  3.94874e-13      19.1079
       718.30000  3.94874e-13      19.0921
       718.40000  3.94874e-13      19.0724
       718.50000  4.06015e-13      19.5943
       718.60000  4.06015e-13      19.5740
       718.70000  4.06015e-13      19.5537
       718.80000  4.04347e-13      19.4532
       718.90000  4.04347e-13      19.4329
       719.00000  4.04347e-13      19.4127
       719.10000  4.04347e-13      19.4127
       719.20000  4.04347e-13      19.4127
       719.30000  4.04347e-13      19.4127
       719.40000  4.04347e-13      19.4168
       719.50000  5.72668e-13      27.4995
       719.60000  5.72668e-13      27.5052
       719.70000  5.72668e-13      27.5052
       719.80000  5.72668e-13      27.5110
       719.90000  5.72668e-13      27.5167
       720.00000  5.72668e-13      27.5281
       720.10000  5.72668e-13      27.5339
       720.20000  5.72668e-13      27.5396
       720.30000  5.72668e-13      27.5510
       720.40000  5.72668e-13      27.5568
       720.50000  8.85347e-13      42.6206
       720.60000  8.85347e-13      42.6383
       720.70000  8.85347e-13      42.6560
       720.80000  8.85347e-13      42.6737
       720.90000  8.85347e-13      42.7003
       721.00000  8.85347e-13      42.7180
       721.10000  8.85347e-13      42.7623
       721.20000  8.85347e-13      42.8065
       721.30000  8.83545e-13      42.7636
       721.40000  8.83545e-13      42.7989
       721.50000  1.22359e-12      59.3320
       721.60000  1.22359e-12      59.3809
       721.70000  1.22359e-12      59.4299
       721.80000  1.22359e-12      59.4910
       721.90000  1.22359e-12      59.5400
       722.00000  1.22359e-12      59.5767
       722.10000  1.22359e-12      59.6256
       722.20000  1.22359e-12      59.6746
       722.30000  1.22359e-12      59.7113
       722.40000  1.22359e-12      59.7480
       722.50000  2.62631e-12      128.321
       722.60000  2.62631e-12      128.426
       722.70000  2.62631e-12      128.479
       722.80000  2.62631e-12      128.558
       722.90000  2.62631e-12      128.637
       723.00000  2.62631e-12      128.689
       723.10000  2.62631e-12      128.768
       723.20000  2.62631e-12      128.820
       723.30000  2.62631e-12      128.873
       723.40000  2.62631e-12      128.925
       723.50000  3.40554e-12      167.246
       723.60000  3.40554e-12      167.280
       723.70000  3.40554e-12      167.348
       723.80000  3.39509e-12      166.869
       723.90000  3.39509e-12      166.903
       724.00000  3.39509e-12      166.937
       724.10000  3.39509e-12      166.971
       724.20000  3.39509e-12      167.005
       724.30000  3.39509e-12      167.038
       724.40000  3.39509e-12      167.072
       724.50000  3.74123e-12      184.106
       724.60000  3.74123e-12      184.106
       724.70000  3.74123e-12      184.106
       724.80000  3.74123e-12      184.106
       724.90000  3.74123e-12      184.106
       725.00000  3.74123e-12      184.106
       725.10000  3.74123e-12      184.181
       725.20000  3.74123e-12      184.255
       725.30000  3.74123e-12      184.293
       725.40000  3.74123e-12      184.368
       725.50000  6.32105e-12      311.565
       725.60000  6.32105e-12      311.628
       725.70000  6.32105e-12      311.628
       725.80000  6.32105e-12      311.691
       725.90000  6.32105e-12      311.691
       726.00000  6.32105e-12      311.691
       726.10000  6.32105e-12      311.691
       726.20000  6.32105e-12      311.691
       726.30000  6.30460e-12      310.817
       726.40000  6.30460e-12      310.754
       726.50000  6.82497e-12      336.335
       726.60000  6.82497e-12      336.266
       726.70000  6.82497e-12      336.198
       726.80000  6.82497e-12      336.062
       726.90000  6.82497e-12      335.925
       727.00000  6.82497e-12      335.789
       727.10000  6.82497e-12      335.311
       727.20000  6.82497e-12      334.833
       727.30000  6.82497e-12      334.355
       727.40000  6.82497e-12      333.946
       727.50000  4.66826e-12      228.138
       727.60000  4.66826e-12      227.858
       727.70000  4.66826e-12      227.625
       727.80000  4.66826e-12      227.391
       727.90000  4.66826e-12      227.158
       728.00000  4.66826e-12      226.971
       728.10000  4.66826e-12      226.784
       728.20000  4.66826e-12      226.598
       728.30000  4.66826e-12      226.411
       728.40000  4.66826e-12      226.271
       728.50000  3.84600e-12      186.300
       728.60000  3.84600e-12      186.223
       728.70000  3.84600e-12      186.108
       728.80000  3.84681e-12      186.109
       728.90000  3.84681e-12      186.032
       729.00000  3.84681e-12      185.993
       729.10000  3.84681e-12      185.955
       729.20000  3.84681e-12      185.916
       729.30000  3.84681e-12      185.916
       729.40000  3.84681e-12      185.878
       729.50000  1.68385e-12      81.3807
       729.60000  1.68385e-12      81.3807
       729.70000  1.68385e-12      81.3976
       729.80000  1.68385e-12      81.4144
       729.90000  1.68385e-12      81.4481
       730.00000  1.68385e-12      81.4817
       730.10000  1.68385e-12      81.5154
       730.20000  1.68385e-12      81.5491
       730.30000  1.68385e-12      81.5996
       730.40000  1.68385e-12      81.6501
       730.50000  2.56141e-12      124.280
       730.60000  2.56141e-12      124.382
       730.70000  2.56141e-12      124.485
       730.80000  2.56141e-12      124.587
       730.90000  2.56141e-12      124.715
       731.00000  2.56141e-12      124.843
       731.10000  2.56141e-12      124.818
       731.20000  2.56141e-12      124.792
       731.30000  2.55953e-12      124.675
       731.40000  2.55953e-12      124.675
       731.50000  4.28408e-12      208.635
       731.60000  4.28408e-12      208.592
       731.70000  4.28408e-12      208.549
       731.80000  4.28408e-12      208.549
       731.90000  4.28408e-12      208.506
       732.00000  4.28408e-12      208.464
       732.10000  4.28408e-12      208.421
       732.20000  4.28408e-12      208.378
       732.30000  4.28408e-12      208.378
       732.40000  4.28408e-12      208.335
       732.50000  1.68691e-12      82.0176
       732.60000  1.68691e-12      82.0008
       732.70000  1.68691e-12      81.9839
       732.80000  1.68691e-12      81.9670
       732.90000  1.68691e-12      81.9502
       733.00000  1.68691e-12      81.9333
       733.10000  1.68691e-12      81.9164
       733.20000  1.68691e-12      81.8827
       733.30000  1.68691e-12      81.8658
       733.40000  1.68691e-12      81.8321
       733.50000  2.65285e-12      128.663
       733.60000  2.65285e-12      128.636
       733.70000  2.65285e-12      128.583
       733.80000  2.64846e-12      128.345
       733.90000  2.64846e-12      128.318
       734.00000  2.64846e-12      128.292
       734.10000  2.64846e-12      128.265
       734.20000  2.64846e-12      128.239
       734.30000  2.64846e-12      128.212
       734.40000  2.64846e-12      128.212
       734.50000  2.05116e-12      99.2762
       734.60000  2.05116e-12      99.2557
       734.70000  2.05116e-12      99.2557
       734.80000  2.05116e-12      99.2352
       734.90000  2.05116e-12      99.2352
       735.00000  2.05116e-12      99.2147
       735.10000  2.05116e-12      99.2147
       735.20000  2.05116e-12      99.2147
       735.30000  2.05116e-12      99.2147
       735.40000  2.05116e-12      99.1942
       735.50000  3.68626e-12      178.268
       735.60000  3.68626e-12      178.268
       735.70000  3.68626e-12      178.268
       735.80000  3.68626e-12      178.304
       735.90000  3.68626e-12      178.304
       736.00000  3.68626e-12      178.304
       736.10000  3.68626e-12      178.304
       736.20000  3.68626e-12      178.341
       736.30000  3.67922e-12      178.001
       736.40000  3.67922e-12      178.038
       736.50000  5.28288e-12      255.639
       736.60000  5.28288e-12      255.691
       736.70000  5.28288e-12      255.744
       736.80000  5.28288e-12      255.744
       736.90000  5.28288e-12      255.797
       737.00000  5.28288e-12      255.850
       737.10000  5.28288e-12      255.586
       737.20000  5.28288e-12      255.269
       737.30000  5.28288e-12      255.005
       737.40000  5.28288e-12      254.741
       737.50000  5.59181e-12      269.302
       737.60000  5.59181e-12      269.022
       737.70000  5.59181e-12      268.742
       737.80000  5.59181e-12      268.463
       737.90000  5.59181e-12      268.239
       738.00000  5.59181e-12      267.960
       738.10000  5.59181e-12      267.680
       738.20000  5.59181e-12      267.400
       738.30000  5.59181e-12      267.177
       738.40000  5.59181e-12      266.953
       738.50000  1.00050e-11      477.139
       738.60000  1.00050e-11      476.739
       738.70000  1.00050e-11      476.339
       738.80000  9.96299e-12      473.939
       738.90000  9.96299e-12      473.541
       739.00000  9.96299e-12      473.142
       739.10000  9.96299e-12      472.345
       739.20000  9.96299e-12      471.648
       739.30000  9.96299e-12      471.050
       739.40000  9.96299e-12      470.452
       739.50000  6.96739e-12      328.582
       739.60000  6.96739e-12      328.234
       739.70000  6.96739e-12      327.955
       739.80000  6.96739e-12      327.607
       739.90000  6.96739e-12      327.398
       740.00000  6.96739e-12      327.119
       740.10000  6.96739e-12      326.980
       740.20000  6.96739e-12      326.771
       740.30000  6.96739e-12      326.631
       740.40000  6.96739e-12      326.562
       740.50000  6.13028e-12      287.265
       740.60000  6.13028e-12      287.203
       740.70000  6.13028e-12      287.203
       740.80000  6.13028e-12      287.203
       740.90000  6.13028e-12      287.265
       741.00000  6.13028e-12      287.326
       741.10000  6.13028e-12      287.449
       741.20000  6.13028e-12      287.571
       741.30000  6.12611e-12      287.498
       741.40000  6.12611e-12      287.682
       741.50000  6.14316e-12      288.667
       741.60000  6.14316e-12      288.913
       741.70000  6.14316e-12      289.220
       741.80000  6.14316e-12      289.466
       741.90000  6.14316e-12      289.834
       742.00000  6.14316e-12      290.142
       742.10000  6.14316e-12      290.510
       742.20000  6.14316e-12      290.940
       742.30000  6.14316e-12      291.370
       742.40000  6.14316e-12      291.800
       742.50000  8.16546e-12      388.513
       742.60000  8.16546e-12      389.166
       742.70000  8.16546e-12      389.901
       742.80000  8.16546e-12      390.636
       742.90000  8.16546e-12      391.452
       743.00000  8.16546e-12      392.269
       743.10000  8.16546e-12      392.106
       743.20000  8.16546e-12      392.024
       743.30000  8.16546e-12      391.942
       743.40000  8.16546e-12      391.779
       743.50000  4.67096e-12      224.066
       743.60000  4.67096e-12      224.019
       743.70000  4.67096e-12      223.973
       743.80000  4.66887e-12      223.826
       743.90000  4.66887e-12      223.779
       744.00000  4.66887e-12      223.732
       744.10000  4.66887e-12      223.732
       744.20000  4.66887e-12      223.686
       744.30000  4.66887e-12      223.686
       744.40000  4.66887e-12      223.686
       744.50000  3.03367e-12      145.313
       744.60000  3.03367e-12      145.313
       744.70000  3.03367e-12      145.313
       744.80000  3.03367e-12      145.313
       744.90000  3.03367e-12      145.343
       745.00000  3.03367e-12      145.343
       745.10000  3.03367e-12      145.434
       745.20000  3.03367e-12      145.525
       745.30000  3.03367e-12      145.586
       745.40000  3.03367e-12      145.677
       745.50000  3.25227e-12      156.239
       745.60000  3.25227e-12      156.304
       745.70000  3.25227e-12      156.369
       745.80000  3.25227e-12      156.434
       745.90000  3.25227e-12      156.467
       746.00000  3.25227e-12      156.532
       746.10000  3.25227e-12      156.564
       746.20000  3.25227e-12      156.597
       746.30000  3.23744e-12      155.915
       746.40000  3.23744e-12      155.948
       746.50000  2.46807e-12      118.911
       746.60000  2.46807e-12      118.911
       746.70000  2.46807e-12      118.936
       746.80000  2.46807e-12      118.936
       746.90000  2.46807e-12      118.936
       747.00000  2.46807e-12      118.936
       747.10000  2.46807e-12      118.862
       747.20000  2.46807e-12      118.813
       747.30000  2.46807e-12      118.763
       747.40000  2.46807e-12      118.714
       747.50000  1.90455e-12      91.5706
       747.60000  1.90455e-12      91.5325
       747.70000  1.90455e-12      91.4944
       747.80000  1.90455e-12      91.4563
       747.90000  1.90455e-12      91.4183
       748.00000  1.90455e-12      91.3801
       748.10000  1.90455e-12      91.3611
       748.20000  1.90455e-12      91.3230
       748.30000  1.90455e-12      91.2849
       748.40000  1.90455e-12      91.2659
       748.50000  1.79006e-12      85.7440
       748.60000  1.79006e-12      85.7082
       748.70000  1.79006e-12      85.6903
       748.80000  1.78375e-12      85.3526
       748.90000  1.78375e-12      85.3347
       749.00000  1.78375e-12      85.3169
       749.10000  1.78375e-12      85.2812
       749.20000  1.78375e-12      85.2634
       749.30000  1.78375e-12      85.2455
       749.40000  1.78375e-12      85.2277
       749.50000  7.88235e-13      37.6540
       749.60000  7.88235e-13      37.6461
       749.70000  7.88235e-13      37.6303
       749.80000  7.88235e-13      37.6225
       749.90000  7.88235e-13      37.6225
       750.00000  7.88235e-13      37.6146
       750.10000  7.88235e-13      37.6067
       750.20000  7.88235e-13      37.5988
       750.30000  7.88235e-13      37.5909
       750.40000  7.88235e-13      37.5909
       750.50000  1.85472e-12      88.4331
       750.60000  1.85472e-12      88.4145
       750.70000  1.85472e-12      88.4145
       750.80000  1.85472e-12      88.3960
       750.90000  1.85472e-12      88.3960
       751.00000  1.85472e-12      88.3774
       751.10000  1.85472e-12      88.3774
       751.20000  1.85472e-12      88.3774
       751.30000  1.85057e-12      88.1612
       751.40000  1.85057e-12      88.1612
       751.50000  1.04759e-12      49.9071
       751.60000  1.04759e-12      49.9071
       751.70000  1.04759e-12      49.9071
       751.80000  1.04759e-12      49.9071
       751.90000  1.04759e-12      49.9071
       752.00000  1.04759e-12      49.9071
       752.10000  1.04759e-12      49.9071
       752.20000  1.04759e-12      49.9071
       752.30000  1.04759e-12      49.9071
       752.40000  1.04759e-12      49.9071
       752.50000  7.92381e-13      37.7570
       752.60000  7.92381e-13      37.7570
       752.70000  7.92381e-13      37.7570
       752.80000  7.92381e-13      37.7649
       752.90000  7.92381e-13      37.7649
       753.00000  7.92381e-13      37.7728
       753.10000  7.92381e-13      37.7728
       753.20000  7.92381e-13      37.7728
       753.30000  7.92381e-13      37.7728
       753.40000  7.92381e-13      37.7728
       753.50000  1.32067e-12      62.9561
       753.60000  1.32067e-12      62.9561
       753.70000  1.32067e-12      62.9561
       753.80000  1.32000e-12      62.9244
       753.90000  1.32000e-12      62.9244
       754.00000  1.32000e-12      62.9244
       754.10000  1.32000e-12      62.9244
       754.20000  1.32000e-12      62.9112
       754.30000  1.32000e-12      62.9112
       754.40000  1.32000e-12      62.9112
       754.50000  9.23338e-13      44.0063
       754.60000  9.23338e-13      44.0063
       754.70000  9.23338e-13      43.9970
       754.80000  9.23338e-13      43.9970
       754.90000  9.23338e-13      43.9878
       755.00000  9.23338e-13      43.9878
       755.10000  9.23338e-13      43.9786
       755.20000  9.23338e-13      43.9786
       755.30000  9.23338e-13      43.9693
       755.40000  9.23338e-13      43.9693
       755.50000  8.16540e-13      38.8755
       755.60000  8.16540e-13      38.8673
       755.70000  8.16540e-13      38.8673
       755.80000  8.16540e-13      38.8591
       755.90000  8.16540e-13      38.8510
       756.00000  8.16540e-13      38.8510
       756.10000  8.16540e-13      38.8428
       756.20000  8.16540e-13      38.8346
       756.30000  8.15238e-13      38.7646
       756.40000  8.15238e-13      38.7646
       756.50000  7.52304e-13      35.7645
       756.60000  7.52304e-13      35.7570
       756.70000  7.52304e-13      35.7495
       756.80000  7.52304e-13      35.7495
       756.90000  7.52304e-13      35.7420
       757.00000  7.52304e-13      35.7344
       757.10000  7.52304e-13      35.7269
       757.20000  7.52304e-13      35.7194
       757.30000  7.52304e-13      35.7194
       757.40000  7.52304e-13      35.7119
       757.50000  7.71450e-13      36.6130
       757.60000  7.71450e-13      36.6053
       757.70000  7.71450e-13      36.5976
       757.80000  7.71450e-13      36.5899
       757.90000  7.71450e-13      36.5822
       758.00000  7.71450e-13      36.5822
       758.10000  7.71450e-13      36.5745
       758.20000  7.71450e-13      36.5667
       758.30000  7.71450e-13      36.5590
       758.40000  7.71450e-13      36.5513
       758.50000  1.31795e-12      62.4315
       758.60000  1.31795e-12      62.4183
       758.70000  1.31795e-12      62.4051
       758.80000  1.31440e-12      62.2236
       758.90000  1.31440e-12      62.2105
       759.00000  1.31440e-12      62.1973
       759.10000  1.31440e-12      62.1973
       759.20000  1.31440e-12      62.1842
       759.30000  1.31440e-12      62.1842
       759.40000  1.31440e-12      62.1710
       759.50000  1.23635e-12      58.4791
       759.60000  1.23635e-12      58.4791
       759.70000  1.23635e-12      58.4668
       759.80000  1.23635e-12      58.4668
       759.90000  1.23635e-12      58.4668
       760.00000  1.23635e-12      58.4668
       760.10000  1.23635e-12      58.4668
       760.20000  1.23635e-12      58.4668
       760.30000  1.23635e-12      58.4791
       760.40000  1.23635e-12      58.4791
       760.50000  1.62417e-12      76.8233
       760.60000  1.62417e-12      76.8395
       760.70000  1.62417e-12      76.8395
       760.80000  1.62417e-12      76.8558
       760.90000  1.62417e-12      76.8558
       761.00000  1.62417e-12      76.8720
       761.10000  1.62417e-12      76.9370
       761.20000  1.62417e-12      76.9857
       761.30000  1.62079e-12      76.8743
       761.40000  1.62079e-12      76.9229
       761.50000  1.63151e-12      77.4806
       761.60000  1.63151e-12      77.5133
       761.70000  1.63151e-12      77.5459
       761.80000  1.63151e-12      77.5785
       761.90000  1.63151e-12      77.6112
       762.00000  1.63151e-12      77.6275
       762.10000  1.63151e-12      77.6601
       762.20000  1.63151e-12      77.6764
       762.30000  1.63151e-12      77.6927
       762.40000  1.63151e-12      77.6927
       762.50000  1.23499e-12      58.8104
       762.60000  1.23499e-12      58.8228
       762.70000  1.23499e-12      58.8228
       762.80000  1.23499e-12      58.8104
       762.90000  1.23499e-12      58.8104
       763.00000  1.23499e-12      58.7981
       763.10000  1.23499e-12      58.7857
       763.20000  1.23499e-12      58.7734
       763.30000  1.23499e-12      58.7487
       763.40000  1.23499e-12      58.7240
       763.50000  1.41098e-12      67.0638
       763.60000  1.41098e-12      67.0356
       763.70000  1.41098e-12      67.0074
       763.80000  1.40737e-12      66.7937
       763.90000  1.40737e-12      66.7514
       764.00000  1.40737e-12      66.7092
       764.10000  1.40737e-12      66.6670
       764.20000  1.40737e-12      66.6107
       764.30000  1.40737e-12      66.5544
       764.40000  1.40737e-12      66.4981
       764.50000  1.24393e-12      58.7261
       764.60000  1.24393e-12      58.6763
       764.70000  1.24393e-12      58.6141
       764.80000  1.24393e-12      58.5519
       764.90000  1.24393e-12      58.4897
       765.00000  1.24393e-12      58.4151
       765.10000  1.24393e-12      58.2782
       765.20000  1.24393e-12      58.1414
       765.30000  1.24393e-12      58.0170
       765.40000  1.24393e-12      57.8926
       765.50000  8.95717e-13      41.6061
       765.60000  8.95717e-13      41.5344
       765.70000  8.95717e-13      41.4538
       765.80000  8.95717e-13      41.3911
       765.90000  8.95717e-13      41.3284
       766.00000  8.95717e-13      41.2657
       766.10000  8.95717e-13      41.2119
       766.20000  8.95717e-13      41.1582
       766.30000  8.95693e-13      41.1123
       766.40000  8.95693e-13      41.0765
       766.50000  1.53778e-12      70.4613
       766.60000  1.53778e-12      70.3998
       766.70000  1.53778e-12      70.3690
       766.80000  1.53778e-12      70.3229
       766.90000  1.53778e-12      70.2921
       767.00000  1.53778e-12      70.2767
       767.10000  1.53778e-12      70.3536
       767.20000  1.53778e-12      70.4459
       767.30000  1.53778e-12      70.5228
       767.40000  1.53778e-12      70.5997
       767.50000  1.57125e-12      72.2146
       767.60000  1.57125e-12      72.2932
       767.70000  1.57125e-12      72.3718
       767.80000  1.57125e-12      72.4346
       767.90000  1.57125e-12      72.5132
       768.00000  1.57125e-12      72.5760
       768.10000  1.57125e-12      72.6389
       768.20000  1.57125e-12      72.7017
       768.30000  1.57125e-12      72.7489
       768.40000  1.57125e-12      72.8117
       768.50000  1.69857e-12      78.7626
       768.60000  1.69857e-12      78.8135
       768.70000  1.69857e-12      78.8645
       768.80000  1.69766e-12      78.8735
       768.90000  1.69766e-12      78.9244
       769.00000  1.69766e-12      78.9584
       769.10000  1.69766e-12      79.0093
       769.20000  1.69766e-12      79.0433
       769.30000  1.69766e-12      79.0772
       769.40000  1.69766e-12      79.1112
       769.50000  2.56533e-12      119.570
       769.60000  2.56533e-12      119.621
       769.70000  2.56533e-12      119.647
       769.80000  2.56533e-12      119.698
       769.90000  2.56533e-12      119.724
       770.00000  2.56533e-12      119.724
       770.10000  2.56533e-12      119.750
       770.20000  2.56533e-12      119.775
       770.30000  2.56533e-12      119.775
       770.40000  2.56533e-12      119.775
       770.50000  2.28553e-12      106.711
       770.60000  2.28553e-12      106.711
       770.70000  2.28553e-12      106.711
       770.80000  2.28553e-12      106.711
       770.90000  2.28553e-12      106.689
       771.00000  2.28553e-12      106.666
       771.10000  2.28553e-12      106.757
       771.20000  2.28553e-12      106.826
       771.30000  2.27854e-12      106.567
       771.40000  2.27854e-12      106.636
       771.50000  3.20224e-12      149.961
       771.60000  3.20224e-12      150.025
       771.70000  3.20224e-12      150.121
       771.80000  3.20224e-12      150.185
       771.90000  3.20224e-12      150.217
       772.00000  3.20224e-12      150.281
       772.10000  3.20224e-12      150.313
       772.20000  3.20224e-12      150.345
       772.30000  3.20224e-12      150.377
       772.40000  3.20224e-12      150.409
       772.50000  3.26926e-12      153.557
       772.60000  3.26926e-12      153.557
       772.70000  3.26926e-12      153.557
       772.80000  3.26926e-12      153.525
       772.90000  3.26926e-12      153.525
       773.00000  3.26926e-12      153.492
       773.10000  3.26926e-12      153.296
       773.20000  3.26926e-12      153.132
       773.30000  3.26926e-12      152.936
       773.40000  3.26926e-12      152.773
       773.50000  4.16800e-12      194.562
       773.60000  4.16800e-12      194.396
       773.70000  4.16800e-12      194.229
       773.80000  4.15151e-12      193.294
       773.90000  4.15151e-12      193.128
       774.00000  4.15151e-12      192.962
       774.10000  4.15151e-12      192.838
       774.20000  4.15151e-12      192.713
       774.30000  4.15151e-12      192.630
       774.40000  4.15151e-12      192.506
       774.50000  3.99396e-12      185.120
       774.60000  3.99396e-12      185.080
       774.70000  3.99396e-12      185.000
       774.80000  3.99396e-12      184.960
       774.90000  3.99396e-12      184.920
       775.00000  3.99396e-12      184.880
       775.10000  3.99396e-12      184.880
       775.20000  3.99396e-12      184.880
       775.30000  3.99396e-12      184.880
       775.40000  3.99396e-12      184.880
       775.50000  5.83363e-12      270.097
       775.60000  5.83363e-12      270.155
       775.70000  5.83363e-12      270.214
       775.80000  5.83363e-12      270.272
       775.90000  5.83363e-12      270.389
       776.00000  5.83363e-12      270.505
       776.10000  5.83363e-12      270.622
       776.20000  5.83363e-12      270.797
       776.30000  5.81884e-12      270.285
       776.40000  5.81884e-12      270.460
       776.50000  5.42441e-12      252.289
       776.60000  5.42441e-12      252.506
       776.70000  5.42441e-12      252.723
       776.80000  5.42441e-12      252.940
       776.90000  5.42441e-12      253.212
       777.00000  5.42441e-12      253.429
       777.10000  5.42441e-12      253.320
       777.20000  5.42441e-12      253.266
       777.30000  5.42441e-12      253.157
       777.40000  5.42441e-12      253.049
       777.50000  5.65996e-12      263.924
       777.60000  5.65996e-12      263.867
       777.70000  5.65996e-12      263.754
       777.80000  5.65996e-12      263.697
       777.90000  5.65996e-12      263.641
       778.00000  5.65996e-12      263.528
       778.10000  5.65996e-12      263.471
       778.20000  5.65996e-12      263.414
       778.30000  5.65996e-12      263.358
       778.40000  5.65996e-12      263.301
       778.50000  6.45946e-12      300.494
       778.60000  6.45946e-12      300.430
       778.70000  6.45946e-12      300.365
       778.80000  6.44310e-12      299.604
       778.90000  6.44310e-12      299.604
       779.00000  6.44310e-12      299.540
       779.10000  6.44310e-12      299.668
       779.20000  6.44310e-12      299.733
       779.30000  6.44310e-12      299.862
       779.40000  6.44310e-12      299.926
       779.50000  1.08177e-11      503.672
       779.60000  1.08177e-11      503.780
       779.70000  1.08177e-11      503.888
       779.80000  1.08177e-11      503.996
       779.90000  1.08177e-11      504.105
       780.00000  1.08177e-11      504.213
       780.10000  1.08177e-11      504.213
       780.20000  1.08177e-11      504.321
       780.30000  1.08177e-11      504.321
       780.40000  1.08177e-11      504.321
       780.50000  7.78089e-12      362.745
       780.60000  7.78089e-12      362.745
       780.70000  7.78089e-12      362.745
       780.80000  7.78089e-12      362.745
       780.90000  7.78089e-12      362.745
       781.00000  7.78089e-12      362.667
       781.10000  7.78089e-12      362.667
       781.20000  7.78089e-12      362.589
       781.30000  7.73763e-12      360.496
       781.40000  7.73763e-12      360.419
       781.50000  8.40808e-12      391.564
       781.60000  8.40808e-12      391.480
       781.70000  8.40808e-12      391.396
       781.80000  8.40808e-12      391.312
       781.90000  8.40808e-12      391.144
       782.00000  8.40808e-12      391.060
       782.10000  8.40808e-12      390.891
       782.20000  8.40808e-12      390.723
       782.30000  8.40808e-12      390.639
       782.40000  8.40808e-12      390.471
       782.50000  7.85189e-12      364.485
       782.60000  7.85189e-12      364.249
       782.70000  7.85189e-12      364.092
       782.80000  7.85189e-12      363.935
       782.90000  7.85189e-12      363.700
       783.00000  7.85189e-12      363.543
       783.10000  7.85189e-12      363.700
       783.20000  7.85189e-12      363.857
       783.30000  7.85189e-12      364.014
       783.40000  7.85189e-12      364.092
       783.50000  5.57756e-12      258.743
       783.60000  5.57756e-12      258.854
       783.70000  5.57756e-12      258.910
       783.80000  5.54913e-12      257.701
       783.90000  5.54913e-12      257.812
       784.00000  5.54913e-12      257.868
       784.10000  5.54913e-12      257.923
       784.20000  5.54913e-12      258.034
       784.30000  5.54913e-12      258.090
       784.40000  5.54913e-12      258.145
       784.50000  4.78767e-12      222.770
       784.60000  4.78767e-12      222.818
       784.70000  4.78767e-12      222.866
       784.80000  4.78767e-12      222.914
       784.90000  4.78767e-12      222.962
       785.00000  4.78767e-12      222.962
       785.10000  4.78767e-12      222.962
       785.20000  4.78767e-12      222.962
       785.30000  4.78767e-12      222.962
       785.40000  4.78767e-12      222.962
       785.50000  3.67071e-12      170.945
       785.60000  3.67071e-12      170.945
       785.70000  3.67071e-12      170.945
       785.80000  3.67071e-12      170.945
       785.90000  3.67071e-12      170.945
       786.00000  3.67071e-12      170.945
       786.10000  3.67071e-12      170.945
       786.20000  3.67071e-12      170.945
       786.30000  3.66455e-12      170.658
       786.40000  3.66455e-12      170.658
       786.50000  3.65964e-12      170.429
       786.60000  3.65964e-12      170.429
       786.70000  3.65964e-12      170.429
       786.80000  3.65964e-12      170.429
       786.90000  3.65964e-12      170.429
       787.00000  3.65964e-12      170.429
       787.10000  3.65964e-12      170.429
       787.20000  3.65964e-12      170.429
       787.30000  3.65964e-12      170.429
       787.40000  3.65964e-12      170.429
       787.50000  1.98920e-12      92.6370
       787.60000  1.98920e-12      92.6370
       787.70000  1.98920e-12      92.6370
       787.80000  1.98920e-12      92.6370
       787.90000  1.98920e-12      92.6370
       788.00000  1.98920e-12      92.6370
       788.10000  1.98920e-12      92.6370
       788.20000  1.98920e-12      92.6370
       788.30000  1.98920e-12      92.6370
       788.40000  1.98920e-12      92.6370
       788.50000  1.55400e-12      72.3698
       788.60000  1.55400e-12      72.3698
       788.70000  1.55400e-12      72.3698
       788.80000  1.55427e-12      72.3824
       788.90000  1.55427e-12      72.3824
       789.00000  1.55427e-12      72.3824
       789.10000  1.55427e-12      72.3513
       789.20000  1.55427e-12      72.3047
       789.30000  1.55427e-12      72.2581
       789.40000  1.55427e-12      72.2270
       789.50000  9.38749e-13      43.5955
       789.60000  9.38749e-13      43.5673
       789.70000  9.38749e-13      43.5486
       789.80000  9.38749e-13      43.5204
       789.90000  9.38749e-13      43.4923
       790.00000  9.38749e-13      43.4735
       790.10000  9.38749e-13      43.4453
       790.20000  9.38749e-13      43.4265
       790.30000  9.38749e-13      43.3984
       790.40000  9.38749e-13      43.3796
       790.50000  7.07650e-13      32.6793
       790.60000  7.07650e-13      32.6581
       790.70000  7.07650e-13      32.6439
       790.80000  7.07650e-13      32.6227
       790.90000  7.07650e-13      32.6085
       791.00000  7.07650e-13      32.5873
       791.10000  7.07650e-13      32.5661
       791.20000  7.07650e-13      32.5519
       791.30000  7.05588e-13      32.4359
       791.40000  7.05588e-13      32.4147
       791.50000  1.00402e-12      46.0944
       791.60000  1.00402e-12      46.0643
       791.70000  1.00402e-12      46.0442
       791.80000  1.00402e-12      46.0141
       791.90000  1.00402e-12      45.9940
       792.00000  1.00402e-12      45.9639
       792.10000  1.00402e-12      45.9438
       792.20000  1.00402e-12      45.9237
       792.30000  1.00402e-12      45.8936
       792.40000  1.00402e-12      45.8735
       792.50000  1.18059e-12      53.9174
       792.60000  1.18059e-12      53.8938
       792.70000  1.18059e-12      53.8702
       792.80000  1.18059e-12      53.8466
       792.90000  1.18059e-12      53.8230
       793.00000  1.18059e-12      53.7994
       793.10000  1.18059e-12      53.7640
       793.20000  1.18059e-12      53.7167
       793.30000  1.18059e-12      53.6813
       793.40000  1.18059e-12      53.6459
       793.50000  6.23276e-13      28.3030
       793.60000  6.23276e-13      28.2905
       793.70000  6.23276e-13      28.2718
       793.80000  6.21498e-13      28.1849
       793.90000  6.21498e-13      28.1725
       794.00000  6.21498e-13      28.1663
       794.10000  6.21498e-13      28.1539
       794.20000  6.21498e-13      28.1539
       794.30000  6.21498e-13      28.1477
       794.40000  6.21498e-13      28.1477
       794.50000  8.02044e-13      36.3246
       794.60000  8.02044e-13      36.3246
       794.70000  8.02044e-13      36.3326
       794.80000  8.02044e-13      36.3326
       794.90000  8.02044e-13      36.3406
       795.00000  8.02044e-13      36.3567
       795.10000  8.02044e-13      36.4128
       795.20000  8.02044e-13      36.4690
       795.30000  8.02044e-13      36.5251
       795.40000  8.02044e-13      36.5812
       795.50000  8.81351e-13      40.2513
       795.60000  8.81351e-13      40.3042
       795.70000  8.81351e-13      40.3482
       795.80000  8.81351e-13      40.3923
       795.90000  8.81351e-13      40.4364
       796.00000  8.81351e-13      40.4716
       796.10000  8.81351e-13      40.5069
       796.20000  8.81351e-13      40.5421
       796.30000  8.80178e-13      40.5146
       796.40000  8.80178e-13      40.5410
       796.50000  4.05496e-13      18.6893
       796.60000  4.05496e-13      18.6974
       796.70000  4.05496e-13      18.7055
       796.80000  4.05496e-13      18.7096
       796.90000  4.05496e-13      18.7136
       797.00000  4.05496e-13      18.7177
       797.10000  4.05496e-13      18.7217
       797.20000  4.05496e-13      18.7217
       797.30000  4.05496e-13      18.7217
       797.40000  4.05496e-13      18.7177
       797.50000  7.06236e-13      32.5928
       797.60000  7.06236e-13      32.5857
       797.70000  7.06236e-13      32.5716
       797.80000  7.06236e-13      32.5575
       797.90000  7.06236e-13      32.5433
       798.00000  7.06236e-13      32.5221
       798.10000  7.06236e-13      32.5010
       798.20000  7.06236e-13      32.4798
       798.30000  7.06236e-13      32.4515
       798.40000  7.06236e-13      32.4233
       798.50000  3.68473e-13      16.9019
       798.60000  3.68473e-13      16.8835
       798.70000  3.68473e-13      16.8650
       798.80000  3.67631e-13      16.8081
       798.90000  3.67631e-13      16.7860
       799.00000  3.67631e-13      16.7640
       799.10000  3.67631e-13      16.7750
       799.20000  3.67631e-13      16.7897
       799.30000  3.67631e-13      16.8044
       799.40000  3.67631e-13      16.8155
       799.50000  3.71683e-13      17.0119
       799.60000  3.71683e-13      17.0231
       799.70000  3.71683e-13      17.0342
       799.80000  3.71683e-13      17.0417
       799.90000  3.71683e-13      17.0491
       800.00000  3.71683e-13      17.0565
       800.10000  3.71683e-13      17.0640
       800.20000  3.71683e-13      17.0714
       800.30000  3.71683e-13      17.0788
       800.40000  3.71683e-13      17.0825
       800.50000  1.75873e-13      8.08489
       800.60000  1.75873e-13      8.08665
       800.70000  1.75873e-13      8.08665
       800.80000  1.75873e-13      8.08841
       800.90000  1.75873e-13      8.08841
       801.00000  1.75873e-13      8.08841
       801.10000  1.75873e-13      8.08489
       801.20000  1.75873e-13      8.08137
       801.30000  1.75357e-13      8.05414
       801.40000  1.75357e-13      8.05064
       801.50000  2.09943e-13      9.63428
       801.60000  2.09943e-13      9.63008
       801.70000  2.09943e-13      9.62588
       801.80000  2.09943e-13      9.62168
       801.90000  2.09943e-13      9.61748
       802.00000  2.09943e-13      9.61329
       802.10000  2.09943e-13      9.60909
       802.20000  2.09943e-13      9.60489
       802.30000  2.09943e-13      9.60069
       802.40000  2.09943e-13      9.59649
       802.50000  2.19228e-13      10.0165
       802.60000  2.19228e-13      10.0122
       802.70000  2.19228e-13      10.0078
       802.80000  2.19228e-13      10.0012
       802.90000  2.19228e-13      9.99681
       803.00000  2.19228e-13      9.99242
       803.10000  2.19228e-13      9.98804
       803.20000  2.19228e-13      9.98365
       803.30000  2.19228e-13      9.97927
       803.40000  2.19228e-13      9.97269
       803.50000  5.31863e-13      24.1838
       803.60000  5.31863e-13      24.1732
       803.70000  5.31863e-13      24.1625
       803.80000  5.30210e-13      24.0769
       803.90000  5.30210e-13      24.0609
       804.00000  5.30210e-13      24.0503
       804.10000  5.30210e-13      24.0397
       804.20000  5.30210e-13      24.0291
       804.30000  5.30210e-13      24.0132
       804.40000  5.30210e-13      24.0026
       804.50000  2.24373e-13      10.1529
       804.60000  2.24373e-13      10.1461
       804.70000  2.24373e-13      10.1417
       804.80000  2.24373e-13      10.1372
       804.90000  2.24373e-13      10.1304
       805.00000  2.24373e-13      10.1260
       805.10000  2.24373e-13      10.1349
       805.20000  2.24373e-13      10.1461
       805.30000  2.24373e-13      10.1529
       805.40000  2.24373e-13      10.1619
       805.50000  3.93324e-13      17.8254
       805.60000  3.93324e-13      17.8372
       805.70000  3.93324e-13      17.8490
       805.80000  3.93324e-13      17.8569
       805.90000  3.93324e-13      17.8648
       806.00000  3.93324e-13      17.8726
       806.10000  3.93324e-13      17.8766
       806.20000  3.93324e-13      17.8805
       806.30000  3.92555e-13      17.8495
       806.40000  3.92555e-13      17.8534
       806.50000  2.74667e-13      12.4919
       806.60000  2.74667e-13      12.4919
       806.70000  2.74667e-13      12.4891
       806.80000  2.74667e-13      12.4891
       806.90000  2.74667e-13      12.4864
       807.00000  2.74667e-13      12.4809
       807.10000  2.74667e-13      12.4589
       807.20000  2.74667e-13      12.4342
       807.30000  2.74667e-13      12.4122
       807.40000  2.74667e-13      12.3930
       807.50000  2.93132e-13      13.2056
       807.60000  2.93132e-13      13.1851
       807.70000  2.93132e-13      13.1675
       807.80000  2.93132e-13      13.1528
       807.90000  2.93132e-13      13.1382
       808.00000  2.93132e-13      13.1235
       808.10000  2.93132e-13      13.1118
       808.20000  2.93132e-13      13.1001
       808.30000  2.93132e-13      13.0884
       808.40000  2.93132e-13      13.0796
       808.50000  1.71684e-13      7.65710
       808.60000  1.71684e-13      7.65366
       808.70000  1.71684e-13      7.65023
       808.80000  1.71521e-13      7.64128
       808.90000  1.71521e-13      7.63957
       809.00000  1.71521e-13      7.63957
       809.10000  1.71521e-13      7.63957
       809.20000  1.71521e-13      7.64128
       809.30000  1.71521e-13      7.64300
       809.40000  1.71521e-13      7.64471
       809.50000  3.60739e-13      16.0854
       809.60000  3.60739e-13      16.0962
       809.70000  3.60739e-13      16.1070
       809.80000  3.60739e-13      16.1178
       809.90000  3.60739e-13      16.1323
       810.00000  3.60739e-13      16.1467
       810.10000  3.60739e-13      16.1647
       810.20000  3.60739e-13      16.1828
       810.30000  3.60739e-13      16.2008
       810.40000  3.60739e-13      16.2225
       810.50000  2.95634e-13      13.3154
       810.60000  2.95634e-13      13.3331
       810.70000  2.95634e-13      13.3568
       810.80000  2.95634e-13      13.3804
       810.90000  2.95634e-13      13.4041
       811.00000  2.95634e-13      13.4307
       811.10000  2.95634e-13      13.4336
       811.20000  2.95634e-13      13.4395
       811.30000  2.95440e-13      13.4336
       811.40000  2.95440e-13      13.4395
       811.50000  1.04055e-13      4.73450
       811.60000  1.04055e-13      4.73554
       811.70000  1.04055e-13      4.73658
       811.80000  1.04055e-13      4.73762
       811.90000  1.04055e-13      4.73867
       812.00000  1.04055e-13      4.73971
       812.10000  1.04055e-13      4.73971
       812.20000  1.04055e-13      4.74075
       812.30000  1.04055e-13      4.74179
       812.40000  1.04055e-13      4.74179
       812.50000  2.89335e-13      13.1850
       812.60000  2.89335e-13      13.1879
       812.70000  2.89335e-13      13.1879
       812.80000  2.89335e-13      13.1879
       812.90000  2.89335e-13      13.1879
       813.00000  2.89335e-13      13.1879
       813.10000  2.89335e-13      13.1821
       813.20000  2.89335e-13      13.1792
       813.30000  2.89335e-13      13.1734
       813.40000  2.89335e-13      13.1705
       813.50000  4.15758e-13      18.9170
       813.60000  4.15758e-13      18.9128
       813.70000  4.15758e-13      18.9087
       813.80000  4.15712e-13      18.9024
       813.90000  4.15712e-13      18.8983
       814.00000  4.15712e-13      18.8900
       814.10000  4.15712e-13      18.8858
       814.20000  4.15712e-13      18.8817
       814.30000  4.15712e-13      18.8775
       814.40000  4.15712e-13      18.8775
       814.50000  3.21656e-13      14.6032
       814.60000  3.21656e-13      14.6000
       814.70000  3.21656e-13      14.5968
       814.80000  3.21656e-13      14.5935
       814.90000  3.21656e-13      14.5935
       815.00000  3.21656e-13      14.5903
       815.10000  3.21656e-13      14.6032
       815.20000  3.21656e-13      14.6128
       815.30000  3.21656e-13      14.6225
       815.40000  3.21656e-13      14.6289
       815.50000  2.47541e-13      11.2656
       815.60000  2.47541e-13      11.2680
       815.70000  2.47541e-13      11.2730
       815.80000  2.47541e-13      11.2730
       815.90000  2.47541e-13      11.2755
       816.00000  2.47541e-13      11.2755
       816.10000  2.47541e-13      11.2755
       816.20000  2.47541e-13      11.2730
       816.30000  2.47534e-13      11.2702
       816.40000  2.47534e-13      11.2677
       816.50000  4.41237e-13      20.0763
       816.60000  4.41237e-13      20.0674
       816.70000  4.41237e-13      20.0542
       816.80000  4.41237e-13      20.0410
       816.90000  4.41237e-13      20.0277
       817.00000  4.41237e-13      20.0101
       817.10000  4.41237e-13      19.9483
       817.20000  4.41237e-13      19.8909
       817.30000  4.41237e-13      19.8380
       817.40000  4.41237e-13      19.7850
       817.50000  2.89013e-13      12.9276
       817.60000  2.89013e-13      12.8987
       817.70000  2.89013e-13      12.8698
       817.80000  2.89013e-13      12.8409
       817.90000  2.89013e-13      12.8177
       818.00000  2.89013e-13      12.7917
       818.10000  2.89013e-13      12.7715
       818.20000  2.89013e-13      12.7513
       818.30000  2.89013e-13      12.7310
       818.40000  2.89013e-13      12.7166
       818.50000  4.36745e-13      19.1906
       818.60000  4.36745e-13      19.1731
       818.70000  4.36745e-13      19.1556
       818.80000  4.36679e-13      19.1353
       818.90000  4.36679e-13      19.1265
       819.00000  4.36679e-13      19.1134
       819.10000  4.36679e-13      19.1091
       819.20000  4.36679e-13      19.1047
       819.30000  4.36679e-13      19.1003
       819.40000  4.36679e-13      19.1003
       819.50000  3.80266e-13      16.6367
       819.60000  3.80266e-13      16.6405
       819.70000  3.80266e-13      16.6481
       819.80000  3.80266e-13      16.6595
       819.90000  3.80266e-13      16.6709
       820.00000  3.80266e-13      16.6861
       820.10000  3.80266e-13      16.7013
       820.20000  3.80266e-13      16.7203
       820.30000  3.80266e-13      16.7431
       820.40000  3.80266e-13      16.7659
       820.50000  2.60128e-13      11.4873
       820.60000  2.60128e-13      11.5055
       820.70000  2.60128e-13      11.5263
       820.80000  2.60128e-13      11.5471
       820.90000  2.60128e-13      11.5705
       821.00000  2.60128e-13      11.5965
       821.10000  2.60128e-13      11.5913
       821.20000  2.60128e-13      11.5887
       821.30000  2.60874e-13      11.6167
       821.40000  2.60874e-13      11.6141
       821.50000  4.33008e-13      19.2688
       821.60000  4.33008e-13      19.2645
       821.70000  4.33008e-13      19.2602
       821.80000  4.33008e-13      19.2515
       821.90000  4.33008e-13      19.2472
       822.00000  4.33008e-13      19.2429
       822.10000  4.33008e-13      19.2429
       822.20000  4.33008e-13      19.2385
       822.30000  4.33008e-13      19.2342
       822.40000  4.33008e-13      19.2342
       822.50000  1.97477e-13      8.76994
       822.60000  1.97477e-13      8.76994
       822.70000  1.97477e-13      8.76797
       822.80000  1.97477e-13      8.76797
       822.90000  1.97477e-13      8.76797
       823.00000  1.97477e-13      8.76797
       823.10000  1.97477e-13      8.76797
       823.20000  1.97477e-13      8.76797
       823.30000  1.97477e-13      8.76797
       823.40000  1.97477e-13      8.76797
       823.50000  3.60921e-13      16.0285
       823.60000  3.60921e-13      16.0285
       823.70000  3.60921e-13      16.0321
       823.80000  3.61905e-13      16.0758
       823.90000  3.61905e-13      16.0795
       824.00000  3.61905e-13      16.0831
       824.10000  3.61905e-13      16.0867
       824.20000  3.61905e-13      16.0903
       824.30000  3.61905e-13      16.0939
       824.40000  3.61905e-13      16.1012
       824.50000  3.42038e-13      15.2207
       824.60000  3.42038e-13      15.2275
       824.70000  3.42038e-13      15.2309
       824.80000  3.42038e-13      15.2378
       824.90000  3.42038e-13      15.2446
       825.00000  3.42038e-13      15.2515
       825.10000  3.42038e-13      15.2583
       825.20000  3.42038e-13      15.2651
       825.30000  3.42038e-13      15.2754
       825.40000  3.42038e-13      15.2822
       825.50000  2.63488e-13      11.7806
       825.60000  2.63488e-13      11.7858
       825.70000  2.63488e-13      11.7937
       825.80000  2.63488e-13      11.8016
       825.90000  2.63488e-13      11.8095
       826.00000  2.63488e-13      11.8174
       826.10000  2.63488e-13      11.8253
       826.20000  2.63488e-13      11.8306
       826.30000  2.63663e-13      11.8464
       826.40000  2.63663e-13      11.8517
       826.50000  2.73541e-13      12.2984
       826.60000  2.73541e-13      12.3039
       826.70000  2.73541e-13      12.3094
       826.80000  2.73541e-13      12.3121
       826.90000  2.73541e-13      12.3148
       827.00000  2.73541e-13      12.3176
       827.10000  2.73541e-13      12.3176
       827.20000  2.73541e-13      12.3203
       827.30000  2.73541e-13      12.3203
       827.40000  2.73541e-13      12.3203
       827.50000  7.48015e-14      3.36906
       827.60000  7.48015e-14      3.36906
       827.70000  7.48015e-14      3.36831
       827.80000  7.48015e-14      3.36756
       827.90000  7.48015e-14      3.36682
       828.00000  7.48015e-14      3.36607
       828.10000  7.48015e-14      3.36382
       828.20000  7.48015e-14      3.36083
       828.30000  7.48015e-14      3.35784
       828.40000  7.48015e-14      3.35485
       828.50000  2.02815e-13      9.09017
       828.60000  2.02815e-13      9.08206
       828.70000  2.02815e-13      9.07597
       828.80000  2.02650e-13      9.06253
       828.90000  2.02650e-13      9.05442
       829.00000  2.02650e-13      9.04834
       829.10000  2.02650e-13      9.04226
       829.20000  2.02650e-13      9.03618
       829.30000  2.02650e-13      9.03010
       829.40000  2.02650e-13      9.02402
       829.50000  2.40096e-13      10.6843
       829.60000  2.40096e-13      10.6771
       829.70000  2.40096e-13      10.6699
       829.80000  2.40096e-13      10.6627
       829.90000  2.40096e-13      10.6579
       830.00000  2.40096e-13      10.6507
       830.10000  2.40096e-13      10.6459
       830.20000  2.40096e-13      10.6386
       830.30000  2.40096e-13      10.6338
       830.40000  2.40096e-13      10.6266
       830.50000  2.60688e-13      11.5328
       830.60000  2.60688e-13      11.5276
       830.70000  2.60688e-13      11.5198
       830.80000  2.60688e-13      11.5146
       830.90000  2.60688e-13      11.5094
       831.00000  2.60688e-13      11.5041
       831.10000  2.60688e-13      11.4989
       831.20000  2.60688e-13      11.4937
       831.30000  2.61394e-13      11.5223
       831.40000  2.61394e-13      11.5170
       831.50000  3.02876e-13      13.3386
       831.60000  3.02876e-13      13.3356
       831.70000  3.02876e-13      13.3296
       831.80000  3.02876e-13      13.3235
       831.90000  3.02876e-13      13.3205
       832.00000  3.02876e-13      13.3174
       832.10000  3.02876e-13      13.3053
       832.20000  3.02876e-13      13.2932
       832.30000  3.02876e-13      13.2841
       832.40000  3.02876e-13      13.2750
       832.50000  3.40110e-13      14.8968
       832.60000  3.40110e-13      14.8900
       832.70000  3.40110e-13      14.8832
       832.80000  3.40110e-13      14.8730
       832.90000  3.40110e-13      14.8696
       833.00000  3.40110e-13      14.8628
       833.10000  3.40110e-13      14.8560
       833.20000  3.40110e-13      14.8526
       833.30000  3.40110e-13      14.8492
       833.40000  3.40110e-13      14.8458
       833.50000  1.66227e-13      7.25583
       833.60000  1.66227e-13      7.25417
       833.70000  1.66227e-13      7.25417
       833.80000  1.66401e-13      7.26174
       833.90000  1.66401e-13      7.26340
       834.00000  1.66401e-13      7.26340
       834.10000  1.66401e-13      7.27172
       834.20000  1.66401e-13      7.27838
       834.30000  1.66401e-13      7.28670
       834.40000  1.66401e-13      7.29335
       834.50000  3.35176e-13      14.7042
       834.60000  3.35176e-13      14.7176
       834.70000  3.35176e-13      14.7277
       834.80000  3.35176e-13      14.7377
       834.90000  3.35176e-13      14.7511
       835.00000  3.35176e-13      14.7612
       835.10000  3.35176e-13      14.7679
       835.20000  3.35176e-13      14.7779
       835.30000  3.35176e-13      14.7846
       835.40000  3.35176e-13      14.7913
       835.50000  1.55568e-13      6.86832
       835.60000  1.55568e-13      6.87143
       835.70000  1.55568e-13      6.87299
       835.80000  1.55568e-13      6.87610
       835.90000  1.55568e-13      6.87766
       836.00000  1.55568e-13      6.87921
       836.10000  1.55568e-13      6.87610
       836.20000  1.55568e-13      6.87455
       836.30000  1.55497e-13      6.86832
       836.40000  1.55497e-13      6.86677
       836.50000  2.29763e-13      10.1440
       836.60000  2.29763e-13      10.1394
       836.70000  2.29763e-13      10.1372
       836.80000  2.29763e-13      10.1349
       836.90000  2.29763e-13      10.1303
       837.00000  2.29763e-13      10.1280
       837.10000  2.29763e-13      10.1257
       837.20000  2.29763e-13      10.1234
       837.30000  2.29763e-13      10.1211
       837.40000  2.29763e-13      10.1188
       837.50000  4.54566e-13      20.0145
       837.60000  4.54566e-13      20.0100
       837.70000  4.54566e-13      20.0054
       837.80000  4.54566e-13      20.0009
       837.90000  4.54566e-13      20.0009
       838.00000  4.54566e-13      19.9963
       838.10000  4.54566e-13      19.9918
       838.20000  4.54566e-13      19.9918
       838.30000  4.54566e-13      19.9918
       838.40000  4.54566e-13      19.9918
       838.50000  4.02295e-13      17.6889
       838.60000  4.02295e-13      17.6889
       838.70000  4.02295e-13      17.6889
       838.80000  4.01078e-13      17.6314
       838.90000  4.01078e-13      17.6314
       839.00000  4.01078e-13      17.6314
       839.10000  4.01078e-13      17.6274
       839.20000  4.01078e-13      17.6274
       839.30000  4.01078e-13      17.6274
       839.40000  4.01078e-13      17.6234
       839.50000  2.47551e-13      10.8774
       839.60000  2.47551e-13      10.8774
       839.70000  2.47551e-13      10.8749
       839.80000  2.47551e-13      10.8749
       839.90000  2.47551e-13      10.8749
       840.00000  2.47551e-13      10.8725
       840.10000  2.47551e-13      10.8725
       840.20000  2.47551e-13      10.8725
       840.30000  2.47551e-13      10.8700
       840.40000  2.47551e-13      10.8700
       840.50000  1.88662e-13      8.28415
       840.60000  1.88662e-13      8.28226
       840.70000  1.88662e-13      8.28226
       840.80000  1.88662e-13      8.28226
       840.90000  1.88662e-13      8.28038
       841.00000  1.88662e-13      8.28038
       841.10000  1.88662e-13      8.28038
       841.20000  1.88662e-13      8.28038
       841.30000  1.88652e-13      8.27804
       841.40000  1.88652e-13      8.27804
       841.50000  3.24683e-13      14.2471
       841.60000  3.24683e-13      14.2438
       841.70000  3.24683e-13      14.2438
       841.80000  3.24683e-13      14.2438
       841.90000  3.24683e-13      14.2406
       842.00000  3.24683e-13      14.2406
       842.10000  3.24683e-13      14.2276
       842.20000  3.24683e-13      14.2178
       842.30000  3.24683e-13      14.2081
       842.40000  3.24683e-13      14.1951
       842.50000  1.68702e-13      7.37058
       842.60000  1.68702e-13      7.36720
       842.70000  1.68702e-13      7.36214
       842.80000  1.68702e-13      7.35877
       842.90000  1.68702e-13      7.35371
       843.00000  1.68702e-13      7.35033
       843.10000  1.68702e-13      7.34696
       843.20000  1.68702e-13      7.34358
       843.30000  1.68702e-13      7.34190
       843.40000  1.68702e-13      7.33852
       843.50000  5.12372e-13      22.2830
       843.60000  5.12372e-13      22.2779
       843.70000  5.12372e-13      22.2728
       843.80000  5.13111e-13      22.2998
       843.90000  5.13111e-13      22.2998
       844.00000  5.13111e-13      22.2947
       844.10000  5.13111e-13      22.3100
       844.20000  5.13111e-13      22.3203
       844.30000  5.13111e-13      22.3306
       844.40000  5.13111e-13      22.3408
       844.50000  3.67712e-13      16.0175
       844.60000  3.67712e-13      16.0249
       844.70000  3.67712e-13      16.0286
       844.80000  3.67712e-13      16.0359
       844.90000  3.67712e-13      16.0396
       845.00000  3.67712e-13      16.0469
       845.10000  3.67712e-13      16.0506
       845.20000  3.67712e-13      16.0543
       845.30000  3.67712e-13      16.0617
       845.40000  3.67712e-13      16.0653
       845.50000  3.03986e-13      13.2811
       845.60000  3.03986e-13      13.2842
       845.70000  3.03986e-13      13.2872
       845.80000  3.03986e-13      13.2902
       845.90000  3.03986e-13      13.2902
       846.00000  3.03986e-13      13.2933
       846.10000  3.03986e-13      13.2933
       846.20000  3.03986e-13      13.2933
       846.30000  3.04786e-13      13.3283
       846.40000  3.04786e-13      13.3313
       846.50000  4.17641e-13      18.2676
       846.60000  4.17641e-13      18.2634
       846.70000  4.17641e-13      18.2634
       846.80000  4.17641e-13      18.2634
       846.90000  4.17641e-13      18.2592
       847.00000  4.17641e-13      18.2592
       847.10000  4.17641e-13      18.2551
       847.20000  4.17641e-13      18.2551
       847.30000  4.17641e-13      18.2509
       847.40000  4.17641e-13      18.2467
       847.50000  3.50808e-13      15.3233
       847.60000  3.50808e-13      15.3198
       847.70000  3.50808e-13      15.3163
       847.80000  3.50808e-13      15.3128
       847.90000  3.50808e-13      15.3058
       848.00000  3.50808e-13      15.3022
       848.10000  3.50808e-13      15.2286
       848.20000  3.50808e-13      15.1619
       848.30000  3.50808e-13      15.0953
       848.40000  3.50808e-13      15.0321
       848.50000  1.32303e-13      5.64670
       848.60000  1.32303e-13      5.62685
       848.70000  1.32303e-13      5.60700
       848.80000  1.32808e-13      5.60982
       848.90000  1.32808e-13      5.59255
       849.00000  1.32808e-13      5.57661
