PDS_VERSION_ID         = PDS3
RECORD_TYPE            = STREAM
OBJECT                 = TEXT
  PUBLICATION_DATE     = 2014-04-25
  INTERCHANGE_FORMAT   = ASCII
  NOTE                 = "System transmission vs. wavelength."
END_OBJECT             = TEXT
END
    
The systrans directory contains the non-wavelength-integrated system 
transmission values (QE*optics*filter1*filter2) for each filter combination. 
The naming convention for these files is as follows:

<camera><filter 1><filter 2>_systrans.tab

where <camera> is "issna" or "isswa," and <filter 1> and <filter 2> represent
the filter names. For polarized filter combinations, values are given for the
parallel orientation of the filter (full transmission), with values for the 
perpendicular (blocking) orientation provided in files with subscript 
"_b_systrans.tab". 

Columns in systrans files are as follows:

 1st column: Wavelength (nm)  
 2nd column: Transmitted Flux
 3rd column: Transmitted Flux * Solar Flux (phot per cm^2-s-angstrom at 1 AU)

The solar spectrum used for this calculation is provided in solarflux.tab.

\begindata
       600.00000  2.98907e-10      15919.8
       600.10000  2.98907e-10      15895.9
       600.20000  2.98907e-10      15869.0
       600.30000  2.98907e-10      15836.1
       600.40000  2.98907e-10      15797.2
       600.50000  1.36162e-10      7178.45
       600.60000  1.36162e-10      7187.98
       600.70000  1.36162e-10      7196.15
       600.80000  1.36162e-10      7204.32
       600.90000  1.36162e-10      7209.76
       601.00000  1.36162e-10      7213.85
       601.10000  1.36162e-10      7215.21
       601.20000  1.36162e-10      7216.57
       601.30000  1.36092e-10      7212.89
       601.40000  1.36092e-10      7210.17
       601.50000  4.20039e-11      2224.53
       601.60000  4.20039e-11      2214.87
       601.70000  4.20039e-11      2206.89
       601.80000  4.20039e-11      2199.74
       601.90000  4.20039e-11      2194.28
       602.00000  4.20039e-11      2190.08
       602.10000  4.20039e-11      2186.72
       602.20000  4.20039e-11      2185.04
       602.30000  4.20039e-11      2184.62
       602.40000  4.20039e-11      2185.46
       602.50000  1.22695e-10      6388.71
       602.60000  1.22695e-10      6398.52
       602.70000  1.22695e-10      6412.02
       602.80000  1.22695e-10      6429.20
       602.90000  1.22695e-10      6450.06
       603.00000  1.22695e-10      6474.59
       603.10000  1.22695e-10      6502.81
       603.20000  1.22695e-10      6534.71
       603.30000  1.22695e-10      6570.30
       603.40000  1.22695e-10      6609.56
       603.50000  2.90907e-11      1577.30
       603.60000  2.90907e-11      1576.71
       603.70000  2.90907e-11      1576.13
       603.80000  2.91056e-11      1576.36
       603.90000  2.91056e-11      1575.49
       604.00000  2.91056e-11      1574.90
       604.10000  2.91056e-11      1574.03
       604.20000  2.91056e-11      1573.45
       604.30000  2.91056e-11      1572.58
       604.40000  2.91056e-11      1571.99
       604.50000  1.99246e-10      10755.3
       604.60000  1.99246e-10      10747.3
       604.70000  1.99246e-10      10739.4
       604.80000  1.99246e-10      10731.4
       604.90000  1.99246e-10      10723.4
       605.00000  1.99246e-10      10717.5
       605.10000  1.99246e-10      10711.5
       605.20000  1.99246e-10      10707.5
       605.30000  1.99246e-10      10701.5
       605.40000  1.99246e-10      10697.5
       605.50000  9.42805e-12      506.003
       605.60000  9.42805e-12      505.909
       605.70000  9.42805e-12      505.720
       605.80000  9.42805e-12      505.626
       605.90000  9.42805e-12      505.626
       606.00000  9.42805e-12      505.532
       606.10000  9.42805e-12      505.532
       606.20000  9.42805e-12      505.532
       606.30000  9.43831e-12      506.082
       606.40000  9.43831e-12      506.177
       606.50000  1.93298e-10      10368.5
       606.60000  1.93298e-10      10372.4
       606.70000  1.93298e-10      10374.3
       606.80000  1.93298e-10      10378.2
       606.90000  1.93298e-10      10378.2
       607.00000  1.93298e-10      10380.1
       607.10000  1.93298e-10      10380.1
       607.20000  1.93298e-10      10380.1
       607.30000  1.93298e-10      10378.2
       607.40000  1.93298e-10      10376.3
       607.50000  5.43902e-11      2919.12
       607.60000  5.43902e-11      2915.86
       607.70000  5.43902e-11      2913.14
       607.80000  5.43902e-11      2910.96
       607.90000  5.43902e-11      2908.79
       608.00000  5.43902e-11      2906.61
       608.10000  5.43902e-11      2904.98
       608.20000  5.43902e-11      2903.35
       608.30000  5.43902e-11      2902.26
       608.40000  5.43902e-11      2901.17
       608.50000  1.19526e-10      6374.33
       608.60000  1.19526e-10      6373.13
       608.70000  1.19526e-10      6371.94
       608.80000  1.19579e-10      6374.74
       608.90000  1.19579e-10      6375.94
       609.00000  1.19579e-10      6377.13
       609.10000  1.19579e-10      6378.33
       609.20000  1.19579e-10      6380.72
       609.30000  1.19579e-10      6383.11
       609.40000  1.19579e-10      6386.70
       609.50000  5.95977e-11      3185.50
       609.60000  5.95977e-11      3171.20
       609.70000  5.95977e-11      3158.68
       609.80000  5.95977e-11      3147.95
       609.90000  5.95977e-11      3139.01
       610.00000  5.95977e-11      3131.26
       610.10000  5.95977e-11      3124.71
       610.20000  5.95977e-11      3119.94
       610.30000  5.95977e-11      3116.96
       610.40000  5.95977e-11      3115.77
       610.50000  8.26273e-11      4318.93
       610.60000  8.26273e-11      4340.41
       610.70000  8.26273e-11      4359.41
       610.80000  8.26273e-11      4376.77
       610.90000  8.26273e-11      4391.64
       611.00000  8.26273e-11      4404.03
       611.10000  8.26273e-11      4414.77
       611.20000  8.26273e-11      4423.04
       611.30000  8.26595e-11      4431.37
       611.40000  8.26595e-11      4435.51
       611.50000  2.46385e-11      1322.60
       611.60000  2.46385e-11      1322.60
       611.70000  2.46385e-11      1321.86
       611.80000  2.46385e-11      1320.63
       611.90000  2.46385e-11      1318.66
       612.00000  2.46385e-11      1316.19
       612.10000  2.46385e-11      1312.99
       612.20000  2.46385e-11      1309.05
       612.30000  2.46385e-11      1304.61
       612.40000  2.46385e-11      1299.44
       612.50000  1.98646e-10      10430.9
       612.60000  1.98646e-10      10405.1
       612.70000  1.98646e-10      10381.2
       612.80000  1.98646e-10      10361.4
       612.90000  1.98646e-10      10345.5
       613.00000  1.98646e-10      10331.6
       613.10000  1.98646e-10      10321.6
       613.20000  1.98646e-10      10313.7
       613.30000  1.98646e-10      10309.7
       613.40000  1.98646e-10      10309.7
       613.50000  2.38474e-11      1237.92
       613.60000  2.38474e-11      1241.50
       613.70000  2.38474e-11      1244.60
       613.80000  2.38424e-11      1247.20
       613.90000  2.38424e-11      1250.06
       614.00000  2.38424e-11      1252.68
       614.10000  2.38424e-11      1254.83
       614.20000  2.38424e-11      1256.97
       614.30000  2.38424e-11      1258.88
       614.40000  2.38424e-11      1260.55
       614.50000  6.94743e-11      3677.28
       614.60000  6.94743e-11      3680.75
       614.70000  6.94743e-11      3683.53
       614.80000  6.94743e-11      3685.61
       614.90000  6.94743e-11      3687.00
       615.00000  6.94743e-11      3687.70
       615.10000  6.94743e-11      3688.39
       615.20000  6.94743e-11      3687.70
       615.30000  6.94743e-11      3687.00
       615.40000  6.94743e-11      3685.61
       615.50000  5.83877e-11      3095.13
       615.60000  5.83877e-11      3060.68
       615.70000  5.83877e-11      3029.15
       615.80000  5.83877e-11      3001.71
       615.90000  5.83877e-11      2978.35
       616.00000  5.83877e-11      2957.92
       616.10000  5.83877e-11      2941.57
       616.20000  5.83877e-11      2928.73
       616.30000  5.84788e-11      2923.94
       616.40000  5.84788e-11      2918.68
       616.50000  1.34088e-10      6686.96
       616.60000  1.34088e-10      6744.62
       616.70000  1.34088e-10      6798.25
       616.80000  1.34088e-10      6847.87
       616.90000  1.34088e-10      6894.80
       617.00000  1.34088e-10      6939.05
       617.10000  1.34088e-10      6979.27
       617.20000  1.34088e-10      7015.48
       617.30000  1.34088e-10      7049.00
       617.40000  1.34088e-10      7079.84
       617.50000  2.12275e-11      1125.06
       617.60000  2.12275e-11      1128.67
       617.70000  2.12275e-11      1131.85
       617.80000  2.12275e-11      1134.61
       617.90000  2.12275e-11      1136.52
       618.00000  2.12275e-11      1138.22
       618.10000  2.12275e-11      1139.28
       618.20000  2.12275e-11      1139.70
       618.30000  2.12275e-11      1139.70
       618.40000  2.12275e-11      1139.07
       618.50000  1.40568e-10      7535.87
       618.60000  1.40568e-10      7521.81
       618.70000  1.40568e-10      7507.75
       618.80000  1.40711e-10      7505.51
       618.90000  1.40711e-10      7495.66
       619.00000  1.40711e-10      7488.63
       619.10000  1.40711e-10      7483.00
       619.20000  1.40711e-10      7480.18
       619.30000  1.40711e-10      7478.78
       619.40000  1.40711e-10      7478.78
       619.50000  2.70184e-11      1436.57
       619.60000  2.70184e-11      1441.70
       619.70000  2.70184e-11      1446.30
       619.80000  2.70184e-11      1450.35
       619.90000  2.70184e-11      1453.86
       620.00000  2.70184e-11      1456.56
       620.10000  2.70184e-11      1458.72
       620.20000  2.70184e-11      1460.34
       620.30000  2.70184e-11      1461.43
       620.40000  2.70184e-11      1461.70
       620.50000  1.32663e-11      717.704
       620.60000  1.32663e-11      714.786
       620.70000  1.32663e-11      712.000
       620.80000  1.32663e-11      709.612
       620.90000  1.32663e-11      707.489
       621.00000  1.32663e-11      705.632
       621.10000  1.32663e-11      704.040
       621.20000  1.32663e-11      702.846
       621.30000  1.32709e-11      702.029
       621.40000  1.32709e-11      701.233
       621.50000  6.34504e-12      335.082
       621.60000  6.34504e-12      336.224
       621.70000  6.34504e-12      337.239
       621.80000  6.34504e-12      338.064
       621.90000  6.34504e-12      338.825
       622.00000  6.34504e-12      339.396
       622.10000  6.34504e-12      339.840
       622.20000  6.34504e-12      340.094
       622.30000  6.34504e-12      340.285
       622.40000  6.34504e-12      340.285
       622.50000  3.03690e-11      1628.08
       622.60000  3.03690e-11      1626.87
       622.70000  3.03690e-11      1625.05
       622.80000  3.03690e-11      1622.62
       622.90000  3.03690e-11      1619.28
       623.00000  3.03690e-11      1615.63
       623.10000  3.03690e-11      1611.08
       623.20000  3.03690e-11      1605.61
       623.30000  3.03690e-11      1599.84
       623.40000  3.03690e-11      1593.16
       623.50000  1.75260e-11      915.383
       623.60000  1.75260e-11      915.207
       623.70000  1.75260e-11      915.207
       623.80000  1.75177e-11      914.422
       623.90000  1.75177e-11      914.246
       624.00000  1.75177e-11      913.896
       624.10000  1.75177e-11      913.371
       624.20000  1.75177e-11      912.845
       624.30000  1.75177e-11      912.320
       624.40000  1.75177e-11      911.619
       624.50000  1.22959e-10      6393.85
       624.60000  1.22959e-10      6369.26
       624.70000  1.22959e-10      6349.59
       624.80000  1.22959e-10      6332.37
       624.90000  1.22959e-10      6318.85
       625.00000  1.22959e-10      6309.01
       625.10000  1.22959e-10      6302.86
       625.20000  1.22959e-10      6299.17
       625.30000  1.22959e-10      6300.40
       625.40000  1.22959e-10      6304.09
       625.50000  1.40138e-10      7193.31
       625.60000  1.40138e-10      7204.52
       625.70000  1.40138e-10      7221.34
       625.80000  1.40138e-10      7240.96
       625.90000  1.40138e-10      7264.78
       626.00000  1.40138e-10      7292.81
       626.10000  1.40138e-10      7325.04
       626.20000  1.40138e-10      7360.07
       626.30000  1.39977e-10      7392.19
       626.40000  1.39977e-10      7435.59
       626.50000  1.25071e-10      6685.03
       626.60000  1.25071e-10      6686.28
       626.70000  1.25071e-10      6687.53
       626.80000  1.25071e-10      6688.79
       626.90000  1.25071e-10      6690.04
       627.00000  1.25071e-10      6691.29
       627.10000  1.25071e-10      6692.54
       627.20000  1.25071e-10      6692.54
       627.30000  1.25071e-10      6693.79
       627.40000  1.25071e-10      6695.04
       627.50000  8.58556e-11      4596.71
       627.60000  8.58556e-11      4600.14
       627.70000  8.58556e-11      4602.72
       627.80000  8.58556e-11      4604.44
       627.90000  8.58556e-11      4606.15
       628.00000  8.58556e-11      4607.01
       628.10000  8.58556e-11      4607.87
       628.20000  8.58556e-11      4607.87
       628.30000  8.58556e-11      4607.01
       628.40000  8.58556e-11      4606.15
       628.50000  3.90826e-11      2096.00
       628.60000  3.90826e-11      2094.83
       628.70000  3.90826e-11      2093.66
       628.80000  3.89950e-11      2087.40
       628.90000  3.89950e-11      2085.45
       629.00000  3.89950e-11      2083.50
       629.10000  3.89950e-11      2081.17
       629.20000  3.89950e-11      2078.83
       629.30000  3.89950e-11      2076.10
       629.40000  3.89950e-11      2072.98
       629.50000  1.37461e-10      7296.45
       629.60000  1.37461e-10      7281.33
       629.70000  1.37461e-10      7266.21
       629.80000  1.37461e-10      7252.46
       629.90000  1.37461e-10      7240.09
       630.00000  1.37461e-10      7227.72
       630.10000  1.37461e-10      7215.35
       630.20000  1.37461e-10      7205.72
       630.30000  1.37461e-10      7194.73
       630.40000  1.37461e-10      7186.48
       630.50000  1.27058e-11      663.497
       630.60000  1.27058e-11      662.734
       630.70000  1.27058e-11      662.099
       630.80000  1.27058e-11      661.591
       630.90000  1.27058e-11      661.083
       631.00000  1.27058e-11      660.701
       631.10000  1.27058e-11      661.083
       631.20000  1.27058e-11      661.464
       631.30000  1.26713e-11      660.175
       631.40000  1.26713e-11      660.555
       631.50000  2.45834e-11      1282.27
       631.60000  2.45834e-11      1283.01
       631.70000  2.45834e-11      1283.75
       631.80000  2.45834e-11      1284.24
       631.90000  2.45834e-11      1284.98
       632.00000  2.45834e-11      1285.71
       632.10000  2.45834e-11      1286.45
       632.20000  2.45834e-11      1286.94
       632.30000  2.45834e-11      1287.68
       632.40000  2.45834e-11      1288.42
       632.50000  3.60302e-11      1889.06
       632.60000  3.60302e-11      1889.79
       632.70000  3.60302e-11      1890.87
       632.80000  3.60302e-11      1891.59
       632.90000  3.60302e-11      1892.31
       633.00000  3.60302e-11      1893.39
       633.10000  3.60302e-11      1894.11
       633.20000  3.60302e-11      1894.83
       633.30000  3.60302e-11      1895.55
       633.40000  3.60302e-11      1896.27
       633.50000  1.95348e-11      1028.51
       633.60000  1.95348e-11      1028.90
       633.70000  1.95348e-11      1029.29
       633.80000  1.94825e-11      1026.73
       633.90000  1.94825e-11      1027.12
       634.00000  1.94825e-11      1027.51
       634.10000  1.94825e-11      1027.70
       634.20000  1.94825e-11      1028.09
       634.30000  1.94825e-11      1028.29
       634.40000  1.94825e-11      1028.67
       634.50000  4.56656e-11      2411.60
       634.60000  4.56656e-11      2412.06
       634.70000  4.56656e-11      2412.97
       634.80000  4.56656e-11      2413.43
       634.90000  4.56656e-11      2413.88
       635.00000  4.56656e-11      2414.34
       635.10000  4.56656e-11      2414.80
       635.20000  4.56656e-11      2414.80
       635.30000  4.56656e-11      2415.25
       635.40000  4.56656e-11      2415.25
       635.50000  3.45108e-12      182.562
       635.60000  3.45108e-12      182.597
       635.70000  3.45108e-12      182.597
       635.80000  3.45108e-12      182.631
       635.90000  3.45108e-12      182.631
       636.00000  3.45108e-12      182.666
       636.10000  3.45108e-12      182.666
       636.20000  3.45108e-12      182.700
       636.30000  3.43864e-12      182.041
       636.40000  3.43864e-12      182.076
       636.50000  8.41648e-11      4456.53
       636.60000  8.41648e-11      4457.37
       636.70000  8.41648e-11      4457.37
       636.80000  8.41648e-11      4458.21
       636.90000  8.41648e-11      4458.21
       637.00000  8.41648e-11      4458.21
       637.10000  8.41648e-11      4459.05
       637.20000  8.41648e-11      4459.05
       637.30000  8.41648e-11      4459.90
       637.40000  8.41648e-11      4459.90
       637.50000  6.58280e-12      348.823
       637.60000  6.58280e-12      348.889
       637.70000  6.58280e-12      348.889
       637.80000  6.58280e-12      348.954
       637.90000  6.58280e-12      348.954
       638.00000  6.58280e-12      348.954
       638.10000  6.58280e-12      349.020
       638.20000  6.58280e-12      349.020
       638.30000  6.58280e-12      349.020
       638.40000  6.58280e-12      349.086
       638.50000  9.67850e-11      5132.51
       638.60000  9.67850e-11      5132.51
       638.70000  9.67850e-11      5133.48
       638.80000  9.65123e-11      5119.01
       638.90000  9.65123e-11      5119.01
       639.00000  9.65123e-11      5119.01
       639.10000  9.65123e-11      5111.29
       639.20000  9.65123e-11      5103.57
       639.30000  9.65123e-11      5095.85
       639.40000  9.65123e-11      5089.10
       639.50000  4.45243e-11      2344.20
       639.60000  4.45243e-11      2341.53
       639.70000  4.45243e-11      2338.42
       639.80000  4.45243e-11      2335.74
       639.90000  4.45243e-11      2333.52
       640.00000  4.45243e-11      2330.85
       640.10000  4.45243e-11      2328.62
       640.20000  4.45243e-11      2326.84
       640.30000  4.45243e-11      2325.06
       640.40000  4.45243e-11      2323.28
       640.50000  3.62569e-11      1890.44
       640.60000  3.62569e-11      1889.35
       640.70000  3.62569e-11      1888.26
       640.80000  3.62569e-11      1887.53
       640.90000  3.62569e-11      1886.45
       641.00000  3.62569e-11      1886.08
       641.10000  3.62569e-11      1886.81
       641.20000  3.62569e-11      1887.53
       641.30000  3.61429e-11      1882.32
       641.40000  3.61429e-11      1883.04
       641.50000  5.99877e-11      3126.56
       641.60000  5.99877e-11      3127.76
       641.70000  5.99877e-11      3128.96
       641.80000  5.99877e-11      3130.16
       641.90000  5.99877e-11      3131.36
       642.00000  5.99877e-11      3132.56
       642.10000  5.99877e-11      3133.16
       642.20000  5.99877e-11      3134.36
       642.30000  5.99877e-11      3135.56
       642.40000  5.99877e-11      3136.76
       642.50000  1.59486e-11      834.270
       642.60000  1.59486e-11      834.589
       642.70000  1.59486e-11      834.908
       642.80000  1.59486e-11      835.227
       642.90000  1.59486e-11      835.546
       643.00000  1.59486e-11      835.865
       643.10000  1.59486e-11      836.024
       643.20000  1.59486e-11      836.343
       643.30000  1.59486e-11      836.662
       643.40000  1.59486e-11      836.981
       643.50000  5.37075e-11      2819.64
       643.60000  5.37075e-11      2820.72
       643.70000  5.37075e-11      2821.25
       643.80000  5.35066e-11      2811.77
       643.90000  5.35066e-11      2812.84
       644.00000  5.35066e-11      2813.91
       644.10000  5.35066e-11      2814.98
       644.20000  5.35066e-11      2815.52
       644.30000  5.35066e-11      2816.59
       644.40000  5.35066e-11      2817.66
       644.50000  1.04778e-10      5519.72
       644.60000  1.04778e-10      5520.77
       644.70000  1.04778e-10      5522.87
       644.80000  1.04778e-10      5524.96
       644.90000  1.04778e-10      5527.06
       645.00000  1.04778e-10      5528.10
       645.10000  1.04778e-10      5527.06
       645.20000  1.04778e-10      5524.96
       645.30000  1.04778e-10      5523.91
       645.40000  1.04778e-10      5521.82
       645.50000  2.90644e-11      1530.82
       645.60000  2.90644e-11      1530.24
       645.70000  2.90644e-11      1529.66
       645.80000  2.90644e-11      1528.79
       645.90000  2.90644e-11      1527.92
       646.00000  2.90644e-11      1527.05
       646.10000  2.90644e-11      1526.17
       646.20000  2.90644e-11      1525.30
       646.30000  2.89439e-11      1517.82
       646.40000  2.89439e-11      1516.66
       646.50000  4.91968e-11      2576.44
       646.60000  4.91968e-11      2573.98
       646.70000  4.91968e-11      2572.01
       646.80000  4.91968e-11      2570.04
       646.90000  4.91968e-11      2567.58
       647.00000  4.91968e-11      2565.61
       647.10000  4.91968e-11      2558.73
       647.20000  4.91968e-11      2552.33
       647.30000  4.91968e-11      2546.43
       647.40000  4.91968e-11      2540.52
       647.50000  4.54579e-12      234.244
       647.60000  4.54579e-12      233.835
       647.70000  4.54579e-12      233.381
       647.80000  4.54579e-12      233.017
       647.90000  4.54579e-12      232.653
       648.00000  4.54579e-12      232.335
       648.10000  4.54579e-12      232.062
       648.20000  4.54579e-12      231.835
       648.30000  4.54579e-12      231.608
       648.40000  4.54579e-12      231.426
       648.50000  5.06951e-11      2579.37
       648.60000  5.06951e-11      2578.35
       648.70000  5.06951e-11      2577.34
       648.80000  5.04869e-11      2566.25
       648.90000  5.04869e-11      2566.25
       649.00000  5.04869e-11      2566.75
       649.10000  5.04869e-11      2567.26
       649.20000  5.04869e-11      2568.77
       649.30000  5.04869e-11      2569.78
       649.40000  5.04869e-11      2571.80
       649.50000  1.70088e-11      867.279
       649.60000  1.70088e-11      868.129
       649.70000  1.70088e-11      869.150
       649.80000  1.70088e-11      870.340
       649.90000  1.70088e-11      871.531
       650.00000  1.70088e-11      872.892
       650.10000  1.70088e-11      874.422
       650.20000  1.70088e-11      876.123
       650.30000  1.70088e-11      877.994
       650.40000  1.70088e-11      879.865
       650.50000  2.15532e-12      111.754
       650.60000  2.15532e-12      112.034
       650.70000  2.15532e-12      112.314
       650.80000  2.15532e-12      112.637
       650.90000  2.15532e-12      112.961
       651.00000  2.15532e-12      113.305
       651.10000  2.15532e-12      113.392
       651.20000  2.15532e-12      113.478
       651.30000  2.14579e-12      113.040
       651.40000  2.14579e-12      113.104
       651.50000  1.24357e-11      655.859
       651.60000  1.24357e-11      655.983
       651.70000  1.24357e-11      656.232
       651.80000  1.24357e-11      656.356
       651.90000  1.24357e-11      656.356
       652.00000  1.24357e-11      656.356
       652.10000  1.24357e-11      656.232
       652.20000  1.24357e-11      656.107
       652.30000  1.24357e-11      655.983
       652.40000  1.24357e-11      655.734
       652.50000  3.80654e-11      2006.04
       652.60000  3.80654e-11      2004.90
       652.70000  3.80654e-11      2003.76
       652.80000  3.80654e-11      2001.86
       652.90000  3.80654e-11      2000.33
       653.00000  3.80654e-11      1998.43
       653.10000  3.80654e-11      1996.91
       653.20000  3.80654e-11      1995.39
       653.30000  3.80654e-11      1993.10
       653.40000  3.80654e-11      1990.82
       653.50000  1.73832e-11      908.098
       653.60000  1.73832e-11      906.881
       653.70000  1.73832e-11      905.490
       653.80000  1.73427e-11      901.818
       653.90000  1.73427e-11      900.257
       654.00000  1.73427e-11      898.523
       654.10000  1.73427e-11      896.789
       654.20000  1.73427e-11      894.708
       654.30000  1.73427e-11      892.627
       654.40000  1.73427e-11      890.546
       654.50000  3.72153e-12      190.617
       654.60000  3.72153e-12      190.096
       654.70000  3.72153e-12      189.538
       654.80000  3.72153e-12      188.979
       654.90000  3.72153e-12      188.384
       655.00000  3.72153e-12      187.751
       655.10000  3.72153e-12      185.965
       655.20000  3.72153e-12      184.253
       655.30000  3.72153e-12      182.653
       655.40000  3.72153e-12      181.164
       655.50000  4.10009e-11      1980.34
       655.60000  4.10009e-11      1965.99
       655.70000  4.10009e-11      1952.46
       655.80000  4.10009e-11      1940.16
       655.90000  4.10009e-11      1928.68
       656.00000  4.10009e-11      1918.43
       656.10000  4.10009e-11      1909.41
       656.20000  4.10009e-11      1901.21
       656.30000  4.09486e-11      1891.83
       656.40000  4.09486e-11      1885.68
       656.50000  2.91106e-11      1337.05
       656.60000  2.91106e-11      1334.43
       656.70000  2.91106e-11      1332.39
       656.80000  2.91106e-11      1331.23
       656.90000  2.91106e-11      1330.64
       657.00000  2.91106e-11      1330.94
       657.10000  2.91106e-11      1342.29
       657.20000  2.91106e-11      1353.35
       657.30000  2.91106e-11      1364.12
       657.40000  2.91106e-11      1374.60
       657.50000  1.46923e-12      69.8765
       657.60000  1.46923e-12      70.3761
       657.70000  1.46923e-12      70.8462
       657.80000  1.46923e-12      71.3017
       657.90000  1.46923e-12      71.7277
       658.00000  1.46923e-12      72.1538
       658.10000  1.46923e-12      72.5652
       658.20000  1.46923e-12      72.9472
       658.30000  1.46923e-12      73.3145
       658.40000  1.46923e-12      73.6671
       658.50000  2.96220e-11      1491.77
       658.60000  2.96220e-11      1498.28
       658.70000  2.96220e-11      1504.21
       658.80000  2.95230e-11      1505.08
       658.90000  2.95230e-11      1510.40
       659.00000  2.95230e-11      1515.12
       659.10000  2.95230e-11      1519.84
       659.20000  2.95230e-11      1524.27
       659.30000  2.95230e-11      1528.11
       659.40000  2.95230e-11      1531.65
       659.50000  5.76871e-11      2999.15
       659.60000  5.76871e-11      3004.92
       659.70000  5.76871e-11      3009.53
       659.80000  5.76871e-11      3014.15
       659.90000  5.76871e-11      3017.61
       660.00000  5.76871e-11      3020.50
       660.10000  5.76871e-11      3022.80
       660.20000  5.76871e-11      3023.96
       660.30000  5.76871e-11      3025.11
       660.40000  5.76871e-11      3025.11
       660.50000  1.74455e-11      914.670
       660.60000  1.74455e-11      914.321
       660.70000  1.74455e-11      913.797
       660.80000  1.74455e-11      912.925
       660.90000  1.74455e-11      912.053
       661.00000  1.74455e-11      910.832
       661.10000  1.74455e-11      910.308
       661.20000  1.74455e-11      909.610
       661.30000  1.73178e-11      902.431
       661.40000  1.73178e-11      901.911
       661.50000  1.51958e-12      79.0943
       661.60000  1.51958e-12      79.0639
       661.70000  1.51958e-12      79.0183
       661.80000  1.51958e-12      78.9879
       661.90000  1.51958e-12      78.9575
       662.00000  1.51958e-12      78.9271
       662.10000  1.51958e-12      78.8967
       662.20000  1.51958e-12      78.8663
       662.30000  1.51958e-12      78.8512
       662.40000  1.51958e-12      78.8360
       662.50000  1.79026e-11      928.431
       662.60000  1.79026e-11      928.431
       662.70000  1.79026e-11      928.252
       662.80000  1.79026e-11      928.073
       662.90000  1.79026e-11      928.073
       663.00000  1.79026e-11      928.073
       663.10000  1.79026e-11      928.789
       663.20000  1.79026e-11      929.326
       663.30000  1.79026e-11      930.042
       663.40000  1.79026e-11      930.579
       663.50000  2.84844e-11      1481.47
       663.60000  2.84844e-11      1482.33
       663.70000  2.84844e-11      1482.90
       663.80000  2.82502e-11      1471.55
       663.90000  2.82502e-11      1472.12
       664.00000  2.82502e-11      1472.40
       664.10000  2.82502e-11      1472.96
       664.20000  2.82502e-11      1473.25
       664.30000  2.82502e-11      1473.53
       664.40000  2.82502e-11      1473.81
       664.50000  2.74368e-12      143.138
       664.60000  2.74368e-12      143.138
       664.70000  2.74368e-12      143.138
       664.80000  2.74368e-12      143.138
       664.90000  2.74368e-12      143.138
       665.00000  2.74368e-12      143.110
       665.10000  2.74368e-12      143.083
       665.20000  2.74368e-12      143.055
       665.30000  2.74368e-12      143.001
       665.40000  2.74368e-12      142.946
       665.50000  1.32673e-12      69.0963
       665.60000  1.32673e-12      69.0697
       665.70000  1.32673e-12      69.0299
       665.80000  1.32673e-12      69.0034
       665.90000  1.32673e-12      68.9636
       666.00000  1.32673e-12      68.9105
       666.10000  1.32673e-12      68.8707
       666.20000  1.32673e-12      68.8177
       666.30000  1.31816e-12      68.3201
       666.40000  1.31816e-12      68.2674
       666.50000  2.67961e-11      1386.43
       666.60000  2.67961e-11      1385.09
       666.70000  2.67961e-11      1383.75
       666.80000  2.67961e-11      1382.41
       666.90000  2.67961e-11      1381.07
       667.00000  2.67961e-11      1379.46
       667.10000  2.67961e-11      1381.07
       667.20000  2.67961e-11      1382.41
       667.30000  2.67961e-11      1383.75
       667.40000  2.67961e-11      1385.09
       667.50000  2.45861e-12      127.208
       667.60000  2.45861e-12      127.307
       667.70000  2.45861e-12      127.405
       667.80000  2.45861e-12      127.479
       667.90000  2.45861e-12      127.553
       668.00000  2.45861e-12      127.626
       668.10000  2.45861e-12      127.700
       668.20000  2.45861e-12      127.749
       668.30000  2.45861e-12      127.798
       668.40000  2.45861e-12      127.823
       668.50000  2.38499e-12      124.019
       668.60000  2.38499e-12      124.043
       668.70000  2.38499e-12      124.043
       668.80000  2.37130e-12      123.331
       668.90000  2.37130e-12      123.331
       669.00000  2.37130e-12      123.308
       669.10000  2.37130e-12      123.142
       669.20000  2.37130e-12      122.976
       669.30000  2.37130e-12      122.833
       669.40000  2.37130e-12      122.691
       669.50000  1.06388e-12      54.9815
       669.60000  1.06388e-12      54.9177
       669.70000  1.06388e-12      54.8645
       669.80000  1.06388e-12      54.8113
       669.90000  1.06388e-12      54.7581
       670.00000  1.06388e-12      54.7155
       670.10000  1.06388e-12      54.6730
       670.20000  1.06388e-12      54.6304
       670.30000  1.06388e-12      54.5879
       670.40000  1.06388e-12      54.5559
       670.50000  1.01238e-11      518.844
       670.60000  1.01238e-11      518.541
       670.70000  1.01238e-11      518.338
       670.80000  1.01238e-11      518.136
       670.90000  1.01238e-11      517.933
       671.00000  1.01238e-11      517.832
       671.10000  1.01238e-11      517.630
       671.20000  1.01238e-11      517.630
       671.30000  1.00664e-11      514.596
       671.40000  1.00664e-11      514.596
       671.50000  6.56483e-12      335.594
       671.60000  6.56483e-12      335.594
       671.70000  6.56483e-12      335.594
       671.80000  6.56483e-12      335.660
       671.90000  6.56483e-12      335.726
       672.00000  6.56483e-12      335.857
       672.10000  6.56483e-12      335.988
       672.20000  6.56483e-12      336.119
       672.30000  6.56483e-12      336.251
       672.40000  6.56483e-12      336.448
       672.50000  6.67408e-11      3422.47
       672.60000  6.67408e-11      3424.47
       672.70000  6.67408e-11      3426.47
       672.80000  6.67408e-11      3429.14
       672.90000  6.67408e-11      3431.81
       673.00000  6.67408e-11      3435.15
       673.10000  6.67408e-11      3433.81
       673.20000  6.67408e-11      3432.48
       673.30000  6.67408e-11      3431.14
       673.40000  6.67408e-11      3430.48
       673.50000  9.84118e-12      505.640
       673.60000  9.84118e-12      505.541
       673.70000  9.84118e-12      505.443
       673.80000  9.77996e-12      502.103
       673.90000  9.77996e-12      502.005
       674.00000  9.77996e-12      501.907
       674.10000  9.77996e-12      501.810
       674.20000  9.77996e-12      501.712
       674.30000  9.77996e-12      501.614
       674.40000  9.77996e-12      501.516
       674.50000  3.27355e-11      1678.35
       674.60000  3.27355e-11      1678.35
       674.70000  3.27355e-11      1678.02
       674.80000  3.27355e-11      1678.02
       674.90000  3.27355e-11      1677.69
       675.00000  3.27355e-11      1677.69
       675.10000  3.27355e-11      1678.02
       675.20000  3.27355e-11      1678.35
       675.30000  3.27355e-11      1678.67
       675.40000  3.27355e-11      1679.00
       675.50000  1.10228e-11      565.359
       675.60000  1.10228e-11      565.469
       675.70000  1.10228e-11      565.580
       675.80000  1.10228e-11      565.580
       675.90000  1.10228e-11      565.690
       676.00000  1.10228e-11      565.690
       676.10000  1.10228e-11      565.800
       676.20000  1.10228e-11      565.800
       676.30000  1.09395e-11      561.523
       676.40000  1.09395e-11      561.523
       676.50000  2.25596e-11      1158.21
       676.60000  2.25596e-11      1158.21
       676.70000  2.25596e-11      1158.21
       676.80000  2.25596e-11      1157.99
       676.90000  2.25596e-11      1157.99
       677.00000  2.25596e-11      1157.99
       677.10000  2.25596e-11      1157.99
       677.20000  2.25596e-11      1157.76
       677.30000  2.25596e-11      1157.76
       677.40000  2.25596e-11      1157.54
       677.50000  9.54208e-12      489.604
       677.60000  9.54208e-12      489.509
       677.70000  9.54208e-12      489.509
       677.80000  9.54208e-12      489.413
       677.90000  9.54208e-12      489.318
       678.00000  9.54208e-12      489.222
       678.10000  9.54208e-12      489.127
       678.20000  9.54208e-12      489.032
       678.30000  9.54208e-12      488.936
       678.40000  9.54208e-12      488.841
       678.50000  6.96732e-12      356.796
       678.60000  6.96732e-12      356.727
       678.70000  6.96732e-12      356.657
       678.80000  6.91481e-12      353.831
       678.90000  6.91481e-12      353.762
       679.00000  6.91481e-12      353.623
       679.10000  6.91481e-12      353.623
       679.20000  6.91481e-12      353.692
       679.30000  6.91481e-12      353.692
       679.40000  6.91481e-12      353.692
       679.50000  1.19021e-11      608.793
       679.60000  1.19021e-11      608.793
       679.70000  1.19021e-11      608.793
       679.80000  1.19021e-11      608.793
       679.90000  1.19021e-11      608.793
       680.00000  1.19021e-11      608.674
       680.10000  1.19021e-11      608.674
       680.20000  1.19021e-11      608.674
       680.30000  1.19021e-11      608.555
       680.40000  1.19021e-11      608.555
       680.50000  4.39824e-11      2248.38
       680.60000  4.39824e-11      2248.38
       680.70000  4.39824e-11      2247.94
       680.80000  4.39824e-11      2247.50
       680.90000  4.39824e-11      2247.06
       681.00000  4.39824e-11      2247.06
       681.10000  4.39824e-11      2246.62
       681.20000  4.39824e-11      2246.18
       681.30000  4.36110e-11      2227.21
       681.40000  4.36110e-11      2226.78
       681.50000  1.71135e-11      873.642
       681.60000  1.71135e-11      873.471
       681.70000  1.71135e-11      873.300
       681.80000  1.71135e-11      872.958
       681.90000  1.71135e-11      872.787
       682.00000  1.71135e-11      872.615
       682.10000  1.71135e-11      872.273
       682.20000  1.71135e-11      871.931
       682.30000  1.71135e-11      871.760
       682.40000  1.71135e-11      871.418
       682.50000  1.51933e-11      773.337
       682.60000  1.51933e-11      773.034
       682.70000  1.51933e-11      772.730
       682.80000  1.51933e-11      772.426
       682.90000  1.51933e-11      771.970
       683.00000  1.51933e-11      771.666
       683.10000  1.51933e-11      771.362
       683.20000  1.51933e-11      770.907
       683.30000  1.51933e-11      770.451
       683.40000  1.51933e-11      769.995
       683.50000  1.49178e-11      755.737
       683.60000  1.49178e-11      755.289
       683.70000  1.49178e-11      754.842
       683.80000  1.47762e-11      747.083
       683.90000  1.47762e-11      746.640
       684.00000  1.47762e-11      746.197
       684.10000  1.47762e-11      745.606
       684.20000  1.47762e-11      745.162
       684.30000  1.47762e-11      744.571
       684.40000  1.47762e-11      744.128
       684.50000  3.23331e-12      162.700
       684.60000  3.23331e-12      162.571
       684.70000  3.23331e-12      162.442
       684.80000  3.23331e-12      162.312
       684.90000  3.23331e-12      162.151
       685.00000  3.23331e-12      162.021
       685.10000  3.23331e-12      162.151
       685.20000  3.23331e-12      162.312
       685.30000  3.23331e-12      162.442
       685.40000  3.23331e-12      162.539
       685.50000  1.76454e-11      887.739
       685.60000  1.76454e-11      888.445
       685.70000  1.76454e-11      888.974
       685.80000  1.76454e-11      889.504
       685.90000  1.76454e-11      890.033
       686.00000  1.76454e-11      890.563
       686.10000  1.76454e-11      891.092
       686.20000  1.76454e-11      891.445
       686.30000  1.74787e-11      883.550
       686.40000  1.74787e-11      883.900
       686.50000  1.13864e-12      57.6039
       686.60000  1.13864e-12      57.6267
       686.70000  1.13864e-12      57.6494
       686.80000  1.13864e-12      57.6608
       686.90000  1.13864e-12      57.6836
       687.00000  1.13864e-12      57.6950
       687.10000  1.13864e-12      57.7064
       687.20000  1.13864e-12      57.7064
       687.30000  1.13864e-12      57.7064
       687.40000  1.13864e-12      57.7064
       687.50000  1.05567e-11      535.013
       687.60000  1.05567e-11      535.013
       687.70000  1.05567e-11      535.013
       687.80000  1.05567e-11      535.013
       687.90000  1.05567e-11      535.013
       688.00000  1.05567e-11      534.907
       688.10000  1.05567e-11      534.907
       688.20000  1.05567e-11      534.907
       688.30000  1.05567e-11      534.802
       688.40000  1.05567e-11      534.802
       688.50000  1.98945e-11      1007.66
       688.60000  1.98945e-11      1007.46
       688.70000  1.98945e-11      1007.46
       688.80000  1.97312e-11      998.988
       688.90000  1.97312e-11      998.791
       689.00000  1.97312e-11      998.594
       689.10000  1.97312e-11      998.396
       689.20000  1.97312e-11      998.199
       689.30000  1.97312e-11      998.002
       689.40000  1.97312e-11      997.805
       689.50000  1.23593e-11      624.886
       689.60000  1.23593e-11      624.763
       689.70000  1.23593e-11      624.515
       689.80000  1.23593e-11      624.392
       689.90000  1.23593e-11      624.268
       690.00000  1.23593e-11      624.021
       690.10000  1.23593e-11      623.774
       690.20000  1.23593e-11      623.650
       690.30000  1.23593e-11      623.403
       690.40000  1.23593e-11      623.156
       690.50000  1.77139e-11      892.956
       690.60000  1.77139e-11      892.601
       690.70000  1.77139e-11      892.247
       690.80000  1.77139e-11      891.893
       690.90000  1.77139e-11      891.538
       691.00000  1.77139e-11      891.184
       691.10000  1.77139e-11      891.538
       691.20000  1.77139e-11      891.716
       691.30000  1.75797e-11      885.313
       691.40000  1.75797e-11      885.489
       691.50000  8.13215e-12      409.697
       691.60000  8.13215e-12      409.860
       691.70000  8.13215e-12      409.941
       691.80000  8.13215e-12      410.023
       691.90000  8.13215e-12      410.104
       692.00000  8.13215e-12      410.104
       692.10000  8.13215e-12      410.185
       692.20000  8.13215e-12      410.267
       692.30000  8.13215e-12      410.267
       692.40000  8.13215e-12      410.267
       692.50000  2.32744e-12      117.443
       692.60000  2.32744e-12      117.443
       692.70000  2.32744e-12      117.443
       692.80000  2.32744e-12      117.443
       692.90000  2.32744e-12      117.443
       693.00000  2.32744e-12      117.419
       693.10000  2.32744e-12      117.419
       693.20000  2.32744e-12      117.396
       693.30000  2.32744e-12      117.373
       693.40000  2.32744e-12      117.349
       693.50000  2.79021e-12      140.654
       693.60000  2.79021e-12      140.627
       693.70000  2.79021e-12      140.599
       693.80000  2.77097e-12      139.601
       693.90000  2.77097e-12      139.546
       694.00000  2.77097e-12      139.518
       694.10000  2.77097e-12      139.490
       694.20000  2.77097e-12      139.435
       694.30000  2.77097e-12      139.407
       694.40000  2.77097e-12      139.352
       694.50000  3.35133e-12      168.471
       694.60000  3.35133e-12      168.438
       694.70000  3.35133e-12      168.371
       694.80000  3.35133e-12      168.304
       694.90000  3.35133e-12      168.237
       695.00000  3.35133e-12      168.170
       695.10000  3.35133e-12      168.103
       695.20000  3.35133e-12      168.036
       695.30000  3.35133e-12      167.935
       695.40000  3.35133e-12      167.868
       695.50000  2.99551e-12      149.985
       695.60000  2.99551e-12      149.896
       695.70000  2.99551e-12      149.836
       695.80000  2.99551e-12      149.746
       695.90000  2.99551e-12      149.656
       696.00000  2.99551e-12      149.596
       696.10000  2.99551e-12      149.506
       696.20000  2.99551e-12      149.416
       696.30000  2.97799e-12      148.453
       696.40000  2.97799e-12      148.363
       696.50000  2.33722e-12      116.370
       696.60000  2.33722e-12      116.300
       696.70000  2.33722e-12      116.207
       696.80000  2.33722e-12      116.136
       696.90000  2.33722e-12      116.066
       697.00000  2.33722e-12      115.973
       697.10000  2.33722e-12      116.136
       697.20000  2.33722e-12      116.253
       697.30000  2.33722e-12      116.394
       697.40000  2.33722e-12      116.510
       697.50000  1.29641e-11      646.907
       697.60000  1.29641e-11      647.426
       697.70000  1.29641e-11      647.944
       697.80000  1.29641e-11      648.333
       697.90000  1.29641e-11      648.722
       698.00000  1.29641e-11      648.982
       698.10000  1.29641e-11      649.241
       698.20000  1.29641e-11      649.500
       698.30000  1.29641e-11      649.630
       698.40000  1.29641e-11      649.759
       698.50000  8.59539e-12      430.887
       698.60000  8.59539e-12      430.887
       698.70000  8.59539e-12      430.801
       698.80000  8.54269e-12      428.074
       698.90000  8.54269e-12      427.989
       699.00000  8.54269e-12      427.818
       699.10000  8.54269e-12      427.049
       699.20000  8.54269e-12      426.195
       699.30000  8.54269e-12      425.511
       699.40000  8.54269e-12      424.743
       699.50000  8.64474e-12      429.125
       699.60000  8.64474e-12      428.433
       699.70000  8.64474e-12      427.828
       699.80000  8.64474e-12      427.223
       699.90000  8.64474e-12      426.618
       700.00000  8.64474e-12      426.099
       700.10000  8.64474e-12      425.580
       700.20000  8.64474e-12      425.062
       700.30000  8.64474e-12      424.630
       700.40000  8.64474e-12      424.197
       700.50000  1.47469e-11      722.892
       700.60000  1.47469e-11      722.302
       700.70000  1.47469e-11      721.713
       700.80000  1.47469e-11      721.270
       700.90000  1.47469e-11      720.828
       701.00000  1.47469e-11      720.385
       701.10000  1.47469e-11      720.238
       701.20000  1.47469e-11      720.090
       701.30000  1.46376e-11      714.609
       701.40000  1.46376e-11      714.609
       701.50000  1.67685e-11      818.636
       701.60000  1.67685e-11      818.636
       701.70000  1.67685e-11      818.636
       701.80000  1.67685e-11      818.804
       701.90000  1.67685e-11      818.804
       702.00000  1.67685e-11      818.971
       702.10000  1.67685e-11      819.307
       702.20000  1.67685e-11      819.474
       702.30000  1.67685e-11      819.810
       702.40000  1.67685e-11      819.978
       702.50000  4.14931e-12      202.984
       702.60000  4.14931e-12      203.109
       702.70000  4.14931e-12      203.192
       702.80000  4.14931e-12      203.316
       702.90000  4.14931e-12      203.441
       703.00000  4.14931e-12      203.565
       703.10000  4.14931e-12      203.939
       703.20000  4.14931e-12      204.312
       703.30000  4.14931e-12      204.644
       703.40000  4.14931e-12      204.976
       703.50000  6.60746e-13      32.6871
       703.60000  6.60746e-13      32.7399
       703.70000  6.60746e-13      32.7796
       703.80000  6.54613e-13      32.5212
       703.90000  6.54613e-13      32.5604
       704.00000  6.54613e-13      32.5932
       704.10000  6.54613e-13      32.6324
       704.20000  6.54613e-13      32.6652
       704.30000  6.54613e-13      32.6914
       704.40000  6.54613e-13      32.7175
       704.50000  2.16329e-11      1082.08
       704.60000  2.16329e-11      1082.94
       704.70000  2.16329e-11      1083.59
       704.80000  2.16329e-11      1084.02
       704.90000  2.16329e-11      1084.67
       705.00000  2.16329e-11      1085.10
       705.10000  2.16329e-11      1085.32
       705.20000  2.16329e-11      1085.54
       705.30000  2.16329e-11      1085.75
       705.40000  2.16329e-11      1085.97
       705.50000  9.58825e-12      481.330
       705.60000  9.58825e-12      481.330
       705.70000  9.58825e-12      481.234
       705.80000  9.58825e-12      481.138
       705.90000  9.58825e-12      481.042
       706.00000  9.58825e-12      480.850
       706.10000  9.58825e-12      480.659
       706.20000  9.58825e-12      480.371
       706.30000  9.49367e-12      475.348
       706.40000  9.49367e-12      475.063
       706.50000  4.29347e-12      214.674
       706.60000  4.29347e-12      214.502
       706.70000  4.29347e-12      214.330
       706.80000  4.29347e-12      214.116
       706.90000  4.29347e-12      213.901
       707.00000  4.29347e-12      213.686
       707.10000  4.29347e-12      213.514
       707.20000  4.29347e-12      213.386
       707.30000  4.29347e-12      213.214
       707.40000  4.29347e-12      213.085
       707.50000  6.29242e-12      312.104
       707.60000  6.29242e-12      311.915
       707.70000  6.29242e-12      311.789
       707.80000  6.29242e-12      311.601
       707.90000  6.29242e-12      311.475
       708.00000  6.29242e-12      311.349
       708.10000  6.29242e-12      311.223
       708.20000  6.29242e-12      311.097
       708.30000  6.29242e-12      310.971
       708.40000  6.29242e-12      310.846
       708.50000  8.71072e-12      430.223
       708.60000  8.71072e-12      430.048
       708.70000  8.71072e-12      429.961
       708.80000  8.61094e-12      424.950
       708.90000  8.61094e-12      424.864
       709.00000  8.61094e-12      424.864
       709.10000  8.61094e-12      425.036
       709.20000  8.61094e-12      425.208
       709.30000  8.61094e-12      425.294
       709.40000  8.61094e-12      425.467
       709.50000  1.60179e-11      791.607
       709.60000  1.60179e-11      791.927
       709.70000  1.60179e-11      792.087
       709.80000  1.60179e-11      792.247
       709.90000  1.60179e-11      792.407
       710.00000  1.60179e-11      792.568
       710.10000  1.60179e-11      792.728
       710.20000  1.60179e-11      792.888
       710.30000  1.60179e-11      792.888
       710.40000  1.60179e-11      793.048
       710.50000  6.31893e-12      312.850
       710.60000  6.31893e-12      312.850
       710.70000  6.31893e-12      312.850
       710.80000  6.31893e-12      312.850
       710.90000  6.31893e-12      312.850
       711.00000  6.31893e-12      312.850
       711.10000  6.31893e-12      312.850
       711.20000  6.31893e-12      312.787
       711.30000  6.22662e-12      308.218
       711.40000  6.22662e-12      308.155
       711.50000  2.44737e-13      12.1096
       711.60000  2.44737e-13      12.1071
       711.70000  2.44737e-13      12.1047
       711.80000  2.44737e-13      12.1022
       711.90000  2.44737e-13      12.0998
       712.00000  2.44737e-13      12.0949
       712.10000  2.44737e-13      12.0924
       712.20000  2.44737e-13      12.0875
       712.30000  2.44737e-13      12.0851
       712.40000  2.44737e-13      12.0802
       712.50000  4.49798e-12      221.930
       712.60000  4.49798e-12      221.840
       712.70000  4.49798e-12      221.705
       712.80000  4.49798e-12      221.615
       712.90000  4.49798e-12      221.526
       713.00000  4.49798e-12      221.391
       713.10000  4.49798e-12      221.391
       713.20000  4.49798e-12      221.391
       713.30000  4.49798e-12      221.391
       713.40000  4.49798e-12      221.346
       713.50000  1.64993e-11      811.928
       713.60000  1.64993e-11      811.928
       713.70000  1.64993e-11      811.763
       713.80000  1.62744e-11      800.699
       713.90000  1.62744e-11      800.536
       714.00000  1.62744e-11      800.536
       714.10000  1.62744e-11      800.373
       714.20000  1.62744e-11      800.211
       714.30000  1.62744e-11      800.211
       714.40000  1.62744e-11      800.048
       714.50000  6.09131e-12      299.388
       714.60000  6.09131e-12      299.327
       714.70000  6.09131e-12      299.327
       714.80000  6.09131e-12      299.266
       714.90000  6.09131e-12      299.205
       715.00000  6.09131e-12      299.144
       715.10000  6.09131e-12      299.083
       715.20000  6.09131e-12      299.083
       715.30000  6.09131e-12      299.083
       715.40000  6.09131e-12      299.022
       715.50000  3.33865e-12      163.861
       715.60000  3.33865e-12      163.828
       715.70000  3.33865e-12      163.794
       715.80000  3.33865e-12      163.761
       715.90000  3.33865e-12      163.728
       716.00000  3.33865e-12      163.661
       716.10000  3.33865e-12      163.627
       716.20000  3.33865e-12      163.561
       716.30000  3.29404e-12      161.309
       716.40000  3.29404e-12      161.243
       716.50000  1.04200e-11      509.849
       716.60000  1.04200e-11      509.641
       716.70000  1.04200e-11      509.433
       716.80000  1.04200e-11      509.120
       716.90000  1.04200e-11      508.912
       717.00000  1.04200e-11      508.599
       717.10000  1.04200e-11      508.286
       717.20000  1.04200e-11      507.974
       717.30000  1.04200e-11      507.661
       717.40000  1.04200e-11      507.349
       717.50000  8.88827e-12      432.503
       717.60000  8.88827e-12      432.148
       717.70000  8.88827e-12      431.881
       717.80000  8.88827e-12      431.526
       717.90000  8.88827e-12      431.170
       718.00000  8.88827e-12      430.815
       718.10000  8.88827e-12      430.459
       718.20000  8.88827e-12      430.104
       718.30000  8.88827e-12      429.748
       718.40000  8.88827e-12      429.304
       718.50000  2.90365e-12      140.130
       718.60000  2.90365e-12      139.985
       718.70000  2.90365e-12      139.840
       718.80000  2.86878e-12      138.017
       718.90000  2.86878e-12      137.873
       719.00000  2.86878e-12      137.730
       719.10000  2.86878e-12      137.730
       719.20000  2.86878e-12      137.730
       719.30000  2.86878e-12      137.730
       719.40000  2.86878e-12      137.759
       719.50000  1.14427e-11      549.477
       719.60000  1.14427e-11      549.592
       719.70000  1.14427e-11      549.592
       719.80000  1.14427e-11      549.706
       719.90000  1.14427e-11      549.821
       720.00000  1.14427e-11      550.050
       720.10000  1.14427e-11      550.164
       720.20000  1.14427e-11      550.278
       720.30000  1.14427e-11      550.507
       720.40000  1.14427e-11      550.622
       720.50000  3.93983e-12      189.663
       720.60000  3.93983e-12      189.742
       720.70000  3.93983e-12      189.821
       720.80000  3.93983e-12      189.900
       720.90000  3.93983e-12      190.018
       721.00000  3.93983e-12      190.097
       721.10000  3.93983e-12      190.294
       721.20000  3.93983e-12      190.491
       721.30000  3.89540e-12      188.537
       721.40000  3.89540e-12      188.693
       721.50000  6.77048e-12      328.300
       721.60000  6.77048e-12      328.571
       721.70000  6.77048e-12      328.842
       721.80000  6.77048e-12      329.181
       721.90000  6.77048e-12      329.451
       722.00000  6.77048e-12      329.654
       722.10000  6.77048e-12      329.925
       722.20000  6.77048e-12      330.196
       722.30000  6.77048e-12      330.399
       722.40000  6.77048e-12      330.602
       722.50000  5.16338e-12      252.283
       722.60000  5.16338e-12      252.489
       722.70000  5.16338e-12      252.592
       722.80000  5.16338e-12      252.747
       722.90000  5.16338e-12      252.902
       723.00000  5.16338e-12      253.005
       723.10000  5.16338e-12      253.160
       723.20000  5.16338e-12      253.264
       723.30000  5.16338e-12      253.367
       723.40000  5.16338e-12      253.470
       723.50000  3.46430e-12      170.132
       723.60000  3.46430e-12      170.166
       723.70000  3.46430e-12      170.236
       723.80000  3.42519e-12      168.348
       723.90000  3.42519e-12      168.383
       724.00000  3.42519e-12      168.417
       724.10000  3.42519e-12      168.451
       724.20000  3.42519e-12      168.485
       724.30000  3.42519e-12      168.520
       724.40000  3.42519e-12      168.554
       724.50000  3.79482e-12      186.743
       724.60000  3.79482e-12      186.743
       724.70000  3.79482e-12      186.743
       724.80000  3.79482e-12      186.743
       724.90000  3.79482e-12      186.743
       725.00000  3.79482e-12      186.743
       725.10000  3.79482e-12      186.819
       725.20000  3.79482e-12      186.895
       725.30000  3.79482e-12      186.933
       725.40000  3.79482e-12      187.009
       725.50000  5.26342e-12      259.434
       725.60000  5.26342e-12      259.487
       725.70000  5.26342e-12      259.487
       725.80000  5.26342e-12      259.539
       725.90000  5.26342e-12      259.539
       726.00000  5.26342e-12      259.539
       726.10000  5.26342e-12      259.539
       726.20000  5.26342e-12      259.539
       726.30000  5.20472e-12      256.593
       726.40000  5.20472e-12      256.541
       726.50000  8.57038e-13      42.2348
       726.60000  8.57038e-13      42.2263
       726.70000  8.57038e-13      42.2177
       726.80000  8.57038e-13      42.2006
       726.90000  8.57038e-13      42.1834
       727.00000  8.57038e-13      42.1663
       727.10000  8.57038e-13      42.1063
       727.20000  8.57038e-13      42.0463
       727.30000  8.57038e-13      41.9863
       727.40000  8.57038e-13      41.9349
       727.50000  5.11357e-12      249.900
       727.60000  5.11357e-12      249.593
       727.70000  5.11357e-12      249.338
       727.80000  5.11357e-12      249.082
       727.90000  5.11357e-12      248.826
       728.00000  5.11357e-12      248.622
       728.10000  5.11357e-12      248.417
       728.20000  5.11357e-12      248.213
       728.30000  5.11357e-12      248.008
       728.40000  5.11357e-12      247.855
       728.50000  6.83488e-12      331.082
       728.60000  6.83488e-12      330.945
       728.70000  6.83488e-12      330.740
       728.80000  6.75866e-12      326.984
       728.90000  6.75866e-12      326.849
       729.00000  6.75866e-12      326.781
       729.10000  6.75866e-12      326.714
       729.20000  6.75866e-12      326.646
       729.30000  6.75866e-12      326.646
       729.40000  6.75866e-12      326.578
       729.50000  6.28579e-12      303.792
       729.60000  6.28579e-12      303.792
       729.70000  6.28579e-12      303.855
       729.80000  6.28579e-12      303.918
       729.90000  6.28579e-12      304.044
       730.00000  6.28579e-12      304.169
       730.10000  6.28579e-12      304.295
       730.20000  6.28579e-12      304.421
       730.30000  6.28579e-12      304.609
       730.40000  6.28579e-12      304.798
       730.50000  2.15166e-12      104.398
       730.60000  2.15166e-12      104.485
       730.70000  2.15166e-12      104.571
       730.80000  2.15166e-12      104.657
       730.90000  2.15166e-12      104.764
       731.00000  2.15166e-12      104.872
       731.10000  2.15166e-12      104.850
       731.20000  2.15166e-12      104.829
       731.30000  2.12499e-12      103.508
       731.40000  2.12499e-12      103.508
       731.50000  6.55284e-12      319.123
       731.60000  6.55284e-12      319.058
       731.70000  6.55284e-12      318.992
       731.80000  6.55284e-12      318.992
       731.90000  6.55284e-12      318.927
       732.00000  6.55284e-12      318.861
       732.10000  6.55284e-12      318.796
       732.20000  6.55284e-12      318.730
       732.30000  6.55284e-12      318.730
       732.40000  6.55284e-12      318.665
       732.50000  5.07415e-12      246.705
       732.60000  5.07415e-12      246.654
       732.70000  5.07415e-12      246.604
       732.80000  5.07415e-12      246.553
       732.90000  5.07415e-12      246.502
       733.00000  5.07415e-12      246.451
       733.10000  5.07415e-12      246.401
       733.20000  5.07415e-12      246.299
       733.30000  5.07415e-12      246.248
       733.40000  5.07415e-12      246.147
       733.50000  8.12202e-12      393.918
       733.60000  8.12202e-12      393.837
       733.70000  8.12202e-12      393.674
       733.80000  8.01058e-12      388.193
       733.90000  8.01058e-12      388.113
       734.00000  8.01058e-12      388.032
       734.10000  8.01058e-12      387.952
       734.20000  8.01058e-12      387.872
       734.30000  8.01058e-12      387.792
       734.40000  8.01058e-12      387.792
       734.50000  2.54300e-12      123.081
       734.60000  2.54300e-12      123.056
       734.70000  2.54300e-12      123.056
       734.80000  2.54300e-12      123.030
       734.90000  2.54300e-12      123.030
       735.00000  2.54300e-12      123.005
       735.10000  2.54300e-12      123.005
       735.20000  2.54300e-12      123.005
       735.30000  2.54300e-12      123.005
       735.40000  2.54300e-12      122.980
       735.50000  7.26810e-12      351.485
       735.60000  7.26810e-12      351.485
       735.70000  7.26810e-12      351.485
       735.80000  7.26810e-12      351.558
       735.90000  7.26810e-12      351.558
       736.00000  7.26810e-12      351.558
       736.10000  7.26810e-12      351.558
       736.20000  7.26810e-12      351.631
       736.30000  7.15368e-12      346.095
       736.40000  7.15368e-12      346.167
       736.50000  4.15427e-12      201.025
       736.60000  4.15427e-12      201.066
       736.70000  4.15427e-12      201.108
       736.80000  4.15427e-12      201.108
       736.90000  4.15427e-12      201.150
       737.00000  4.15427e-12      201.191
       737.10000  4.15427e-12      200.983
       737.20000  4.15427e-12      200.734
       737.30000  4.15427e-12      200.526
       737.40000  4.15427e-12      200.319
       737.50000  4.27905e-12      206.079
       737.60000  4.27905e-12      205.865
       737.70000  4.27905e-12      205.651
       737.80000  4.27905e-12      205.437
       737.90000  4.27905e-12      205.266
       738.00000  4.27905e-12      205.052
       738.10000  4.27905e-12      204.838
       738.20000  4.27905e-12      204.624
       738.30000  4.27905e-12      204.453
       738.40000  4.27905e-12      204.282
       738.50000  5.73583e-12      273.542
       738.60000  5.73583e-12      273.312
       738.70000  5.73583e-12      273.083
       738.80000  5.63714e-12      268.159
       738.90000  5.63714e-12      267.933
       739.00000  5.63714e-12      267.708
       739.10000  5.63714e-12      267.257
       739.20000  5.63714e-12      266.862
       739.30000  5.63714e-12      266.524
       739.40000  5.63714e-12      266.186
       739.50000  6.87271e-12      324.117
       739.60000  6.87271e-12      323.773
       739.70000  6.87271e-12      323.498
       739.80000  6.87271e-12      323.155
       739.90000  6.87271e-12      322.949
       740.00000  6.87271e-12      322.674
       740.10000  6.87271e-12      322.536
       740.20000  6.87271e-12      322.330
       740.30000  6.87271e-12      322.193
       740.40000  6.87271e-12      322.124
       740.50000  4.21865e-12      197.686
       740.60000  4.21865e-12      197.644
       740.70000  4.21865e-12      197.644
       740.80000  4.21865e-12      197.644
       740.90000  4.21865e-12      197.686
       741.00000  4.21865e-12      197.728
       741.10000  4.21865e-12      197.813
       741.20000  4.21865e-12      197.897
       741.30000  4.14573e-12      194.559
       741.40000  4.14573e-12      194.683
       741.50000  6.19789e-12      291.239
       741.60000  6.19789e-12      291.487
       741.70000  6.19789e-12      291.797
       741.80000  6.19789e-12      292.044
       741.90000  6.19789e-12      292.416
       742.00000  6.19789e-12      292.726
       742.10000  6.19789e-12      293.098
       742.20000  6.19789e-12      293.532
       742.30000  6.19789e-12      293.966
       742.40000  6.19789e-12      294.400
       742.50000  4.39096e-12      208.922
       742.60000  4.39096e-12      209.273
       742.70000  4.39096e-12      209.668
       742.80000  4.39096e-12      210.063
       742.90000  4.39096e-12      210.502
       743.00000  4.39096e-12      210.942
       743.10000  4.39096e-12      210.854
       743.20000  4.39096e-12      210.810
       743.30000  4.39096e-12      210.766
       743.40000  4.39096e-12      210.678
       743.50000  2.27351e-12      109.060
       743.60000  2.27351e-12      109.037
       743.70000  2.27351e-12      109.015
       743.80000  2.23842e-12      107.310
       743.90000  2.23842e-12      107.287
       744.00000  2.23842e-12      107.265
       744.10000  2.23842e-12      107.265
       744.20000  2.23842e-12      107.243
       744.30000  2.23842e-12      107.243
       744.40000  2.23842e-12      107.243
       744.50000  5.49770e-12      263.340
       744.60000  5.49770e-12      263.340
       744.70000  5.49770e-12      263.340
       744.80000  5.49770e-12      263.340
       744.90000  5.49770e-12      263.395
       745.00000  5.49770e-12      263.395
       745.10000  5.49770e-12      263.560
       745.20000  5.49770e-12      263.725
       745.30000  5.49770e-12      263.835
       745.40000  5.49770e-12      263.999
       745.50000  3.54114e-12      170.116
       745.60000  3.54114e-12      170.187
       745.70000  3.54114e-12      170.258
       745.80000  3.54114e-12      170.329
       745.90000  3.54114e-12      170.364
       746.00000  3.54114e-12      170.435
       746.10000  3.54114e-12      170.470
       746.20000  3.54114e-12      170.506
       746.30000  3.50048e-12      168.583
       746.40000  3.50048e-12      168.618
       746.50000  4.25138e-13      20.4831
       746.60000  4.25138e-13      20.4831
       746.70000  4.25138e-13      20.4874
       746.80000  4.25138e-13      20.4874
       746.90000  4.25138e-13      20.4874
       747.00000  4.25138e-13      20.4874
       747.10000  4.25138e-13      20.4746
       747.20000  4.25138e-13      20.4661
       747.30000  4.25138e-13      20.4576
       747.40000  4.25138e-13      20.4491
       747.50000  3.57926e-12      172.091
       747.60000  3.57926e-12      172.019
       747.70000  3.57926e-12      171.948
       747.80000  3.57926e-12      171.876
       747.90000  3.57926e-12      171.804
       748.00000  3.57926e-12      171.733
       748.10000  3.57926e-12      171.697
       748.20000  3.57926e-12      171.625
       748.30000  3.57926e-12      171.554
       748.40000  3.57926e-12      171.518
       748.50000  4.52500e-12      216.748
       748.60000  4.52500e-12      216.657
       748.70000  4.52500e-12      216.612
       748.80000  4.47333e-12      214.049
       748.90000  4.47333e-12      214.004
       749.00000  4.47333e-12      213.960
       749.10000  4.47333e-12      213.870
       749.20000  4.47333e-12      213.825
       749.30000  4.47333e-12      213.781
       749.40000  4.47333e-12      213.736
       749.50000  5.67491e-12      271.090
       749.60000  5.67491e-12      271.034
       749.70000  5.67491e-12      270.920
       749.80000  5.67491e-12      270.863
       749.90000  5.67491e-12      270.863
       750.00000  5.67491e-12      270.807
       750.10000  5.67491e-12      270.750
       750.20000  5.67491e-12      270.693
       750.30000  5.67491e-12      270.636
       750.40000  5.67491e-12      270.636
       750.50000  2.06049e-12      98.2443
       750.60000  2.06049e-12      98.2237
       750.70000  2.06049e-12      98.2237
       750.80000  2.06049e-12      98.2031
       750.90000  2.06049e-12      98.2031
       751.00000  2.06049e-12      98.1824
       751.10000  2.06049e-12      98.1824
       751.20000  2.06049e-12      98.1824
       751.30000  2.03407e-12      96.9029
       751.40000  2.03407e-12      96.9029
       751.50000  1.51503e-12      72.1760
       751.60000  1.51503e-12      72.1760
       751.70000  1.51503e-12      72.1760
       751.80000  1.51503e-12      72.1760
       751.90000  1.51503e-12      72.1760
       752.00000  1.51503e-12      72.1760
       752.10000  1.51503e-12      72.1760
       752.20000  1.51503e-12      72.1760
       752.30000  1.51503e-12      72.1760
       752.40000  1.51503e-12      72.1760
       752.50000  1.59527e-12      76.0145
       752.60000  1.59527e-12      76.0145
       752.70000  1.59527e-12      76.0145
       752.80000  1.59527e-12      76.0305
       752.90000  1.59527e-12      76.0305
       753.00000  1.59527e-12      76.0464
       753.10000  1.59527e-12      76.0464
       753.20000  1.59527e-12      76.0464
       753.30000  1.59527e-12      76.0464
       753.40000  1.59527e-12      76.0464
       753.50000  3.84612e-12      183.344
       753.60000  3.84612e-12      183.344
       753.70000  3.84612e-12      183.344
       753.80000  3.79198e-12      180.764
       753.90000  3.79198e-12      180.764
       754.00000  3.79198e-12      180.764
       754.10000  3.79198e-12      180.764
       754.20000  3.79198e-12      180.726
       754.30000  3.79198e-12      180.726
       754.40000  3.79198e-12      180.726
       754.50000  3.66600e-12      174.722
       754.60000  3.66600e-12      174.722
       754.70000  3.66600e-12      174.685
       754.80000  3.66600e-12      174.685
       754.90000  3.66600e-12      174.648
       755.00000  3.66600e-12      174.648
       755.10000  3.66600e-12      174.612
       755.20000  3.66600e-12      174.612
       755.30000  3.66600e-12      174.575
       755.40000  3.66600e-12      174.575
       755.50000  2.65370e-12      126.343
       755.60000  2.65370e-12      126.316
       755.70000  2.65370e-12      126.316
       755.80000  2.65370e-12      126.290
       755.90000  2.65370e-12      126.263
       756.00000  2.65370e-12      126.263
       756.10000  2.65370e-12      126.237
       756.20000  2.65370e-12      126.210
       756.30000  2.61553e-12      124.368
       756.40000  2.61553e-12      124.368
       756.50000  3.22251e-12      153.198
       756.60000  3.22251e-12      153.166
       756.70000  3.22251e-12      153.133
       756.80000  3.22251e-12      153.133
       756.90000  3.22251e-12      153.101
       757.00000  3.22251e-12      153.069
       757.10000  3.22251e-12      153.037
       757.20000  3.22251e-12      153.005
       757.30000  3.22251e-12      153.005
       757.40000  3.22251e-12      152.972
       757.50000  5.93979e-12      281.903
       757.60000  5.93979e-12      281.843
       757.70000  5.93979e-12      281.784
       757.80000  5.93979e-12      281.724
       757.90000  5.93979e-12      281.665
       758.00000  5.93979e-12      281.665
       758.10000  5.93979e-12      281.606
       758.20000  5.93979e-12      281.546
       758.30000  5.93979e-12      281.487
       758.40000  5.93979e-12      281.427
       758.50000  8.75255e-13      41.4608
       758.60000  8.75255e-13      41.4521
       758.70000  8.75255e-13      41.4433
       758.80000  8.59767e-13      40.7014
       758.90000  8.59767e-13      40.6927
       759.00000  8.59767e-13      40.6842
       759.10000  8.59767e-13      40.6842
       759.20000  8.59767e-13      40.6756
       759.30000  8.59767e-13      40.6756
       759.40000  8.59767e-13      40.6670
       759.50000  9.49687e-13      44.9202
       759.60000  9.49687e-13      44.9202
       759.70000  9.49687e-13      44.9107
       759.80000  9.49687e-13      44.9107
       759.90000  9.49687e-13      44.9107
       760.00000  9.49687e-13      44.9107
       760.10000  9.49687e-13      44.9107
       760.20000  9.49687e-13      44.9107
       760.30000  9.49687e-13      44.9202
       760.40000  9.49687e-13      44.9202
       760.50000  5.09212e-12      240.857
       760.60000  5.09212e-12      240.908
       760.70000  5.09212e-12      240.908
       760.80000  5.09212e-12      240.959
       760.90000  5.09212e-12      240.959
       761.00000  5.09212e-12      241.010
       761.10000  5.09212e-12      241.214
       761.20000  5.09212e-12      241.367
       761.30000  4.98718e-12      236.542
       761.40000  4.98718e-12      236.691
       761.50000  3.30103e-12      156.766
       761.60000  3.30103e-12      156.832
       761.70000  3.30103e-12      156.898
       761.80000  3.30103e-12      156.964
       761.90000  3.30103e-12      157.030
       762.00000  3.30103e-12      157.063
       762.10000  3.30103e-12      157.129
       762.20000  3.30103e-12      157.162
       762.30000  3.30103e-12      157.195
       762.40000  3.30103e-12      157.195
       762.50000  3.56687e-12      169.855
       762.60000  3.56687e-12      169.890
       762.70000  3.56687e-12      169.890
       762.80000  3.56687e-12      169.855
       762.90000  3.56687e-12      169.855
       763.00000  3.56687e-12      169.819
       763.10000  3.56687e-12      169.783
       763.20000  3.56687e-12      169.747
       763.30000  3.56687e-12      169.676
       763.40000  3.56687e-12      169.605
       763.50000  3.63361e-12      172.705
       763.60000  3.63361e-12      172.633
       763.70000  3.63361e-12      172.560
       763.80000  3.54276e-12      168.139
       763.90000  3.54276e-12      168.033
       764.00000  3.54276e-12      167.927
       764.10000  3.54276e-12      167.820
       764.20000  3.54276e-12      167.679
       764.30000  3.54276e-12      167.537
       764.40000  3.54276e-12      167.395
       764.50000  3.68806e-12      174.113
       764.60000  3.68806e-12      173.966
       764.70000  3.68806e-12      173.781
       764.80000  3.68806e-12      173.597
       764.90000  3.68806e-12      173.413
       765.00000  3.68806e-12      173.191
       765.10000  3.68806e-12      172.786
       765.20000  3.68806e-12      172.380
       765.30000  3.68806e-12      172.011
       765.40000  3.68806e-12      171.642
       765.50000  2.04825e-12      95.1413
       765.60000  2.04825e-12      94.9775
       765.70000  2.04825e-12      94.7931
       765.80000  2.04825e-12      94.6498
       765.90000  2.04825e-12      94.5064
       766.00000  2.04825e-12      94.3630
       766.10000  2.04825e-12      94.2401
       766.20000  2.04825e-12      94.1172
       766.30000  1.99769e-12      91.6938
       766.40000  1.99769e-12      91.6139
       766.50000  1.37464e-12      62.9861
       766.60000  1.37464e-12      62.9311
       766.70000  1.37464e-12      62.9036
       766.80000  1.37464e-12      62.8624
       766.90000  1.37464e-12      62.8349
       767.00000  1.37464e-12      62.8211
       767.10000  1.37464e-12      62.8898
       767.20000  1.37464e-12      62.9723
       767.30000  1.37464e-12      63.0411
       767.40000  1.37464e-12      63.1098
       767.50000  3.43663e-12      157.947
       767.60000  3.43663e-12      158.119
       767.70000  3.43663e-12      158.291
       767.80000  3.43663e-12      158.429
       767.90000  3.43663e-12      158.600
       768.00000  3.43663e-12      158.738
       768.10000  3.43663e-12      158.875
       768.20000  3.43663e-12      159.013
       768.30000  3.43663e-12      159.116
       768.40000  3.43663e-12      159.253
       768.50000  3.18532e-12      147.703
       768.60000  3.18532e-12      147.799
       768.70000  3.18532e-12      147.894
       768.80000  3.11288e-12      144.624
       768.90000  3.11288e-12      144.718
       769.00000  3.11288e-12      144.780
       769.10000  3.11288e-12      144.874
       769.20000  3.11288e-12      144.936
       769.30000  3.11288e-12      144.998
       769.40000  3.11288e-12      145.060
       769.50000  1.61343e-12      75.2021
       769.60000  1.61343e-12      75.2344
       769.70000  1.61343e-12      75.2505
       769.80000  1.61343e-12      75.2828
       769.90000  1.61343e-12      75.2989
       770.00000  1.61343e-12      75.2989
       770.10000  1.61343e-12      75.3150
       770.20000  1.61343e-12      75.3312
       770.30000  1.61343e-12      75.3312
       770.40000  1.61343e-12      75.3312
       770.50000  3.62783e-12      169.383
       770.60000  3.62783e-12      169.383
       770.70000  3.62783e-12      169.383
       770.80000  3.62783e-12      169.383
       770.90000  3.62783e-12      169.347
       771.00000  3.62783e-12      169.311
       771.10000  3.62783e-12      169.456
       771.20000  3.62783e-12      169.565
       771.30000  3.55944e-12      166.475
       771.40000  3.55944e-12      166.582
       771.50000  3.09997e-12      145.172
       771.60000  3.09997e-12      145.234
       771.70000  3.09997e-12      145.327
       771.80000  3.09997e-12      145.389
       771.90000  3.09997e-12      145.420
       772.00000  3.09997e-12      145.482
       772.10000  3.09997e-12      145.513
       772.20000  3.09997e-12      145.544
       772.30000  3.09997e-12      145.575
       772.40000  3.09997e-12      145.606
       772.50000  3.66656e-12      172.218
       772.60000  3.66656e-12      172.218
       772.70000  3.66656e-12      172.218
       772.80000  3.66656e-12      172.181
       772.90000  3.66656e-12      172.181
       773.00000  3.66656e-12      172.145
       773.10000  3.66656e-12      171.925
       773.20000  3.66656e-12      171.741
       773.30000  3.66656e-12      171.521
       773.40000  3.66656e-12      171.338
       773.50000  3.46606e-12      161.796
       773.60000  3.46606e-12      161.657
       773.70000  3.46606e-12      161.518
       773.80000  3.41196e-12      158.861
       773.90000  3.41196e-12      158.724
       774.00000  3.41196e-12      158.588
       774.10000  3.41196e-12      158.486
       774.20000  3.41196e-12      158.383
       774.30000  3.41196e-12      158.315
       774.40000  3.41196e-12      158.213
       774.50000  2.31825e-12      107.451
       774.60000  2.31825e-12      107.428
       774.70000  2.31825e-12      107.382
       774.80000  2.31825e-12      107.358
       774.90000  2.31825e-12      107.335
       775.00000  2.31825e-12      107.312
       775.10000  2.31825e-12      107.312
       775.20000  2.31825e-12      107.312
       775.30000  2.31825e-12      107.312
       775.40000  2.31825e-12      107.312
       775.50000  5.71896e-12      264.788
       775.60000  5.71896e-12      264.845
       775.70000  5.71896e-12      264.902
       775.80000  5.71896e-12      264.959
       775.90000  5.71896e-12      265.074
       776.00000  5.71896e-12      265.188
       776.10000  5.71896e-12      265.302
       776.20000  5.71896e-12      265.474
       776.30000  5.63617e-12      261.800
       776.40000  5.63617e-12      261.969
       776.50000  3.96221e-12      184.282
       776.60000  3.96221e-12      184.441
       776.70000  3.96221e-12      184.599
       776.80000  3.96221e-12      184.758
       776.90000  3.96221e-12      184.956
       777.00000  3.96221e-12      185.114
       777.10000  3.96221e-12      185.035
       777.20000  3.96221e-12      184.996
       777.30000  3.96221e-12      184.916
       777.40000  3.96221e-12      184.837
       777.50000  3.04802e-12      142.129
       777.60000  3.04802e-12      142.099
       777.70000  3.04802e-12      142.038
       777.80000  3.04802e-12      142.007
       777.90000  3.04802e-12      141.977
       778.00000  3.04802e-12      141.916
       778.10000  3.04802e-12      141.885
       778.20000  3.04802e-12      141.855
       778.30000  3.04802e-12      141.824
       778.40000  3.04802e-12      141.794
       778.50000  3.24182e-12      150.809
       778.60000  3.24182e-12      150.777
       778.70000  3.24182e-12      150.745
       778.80000  3.20526e-12      149.045
       778.90000  3.20526e-12      149.045
       779.00000  3.20526e-12      149.013
       779.10000  3.20526e-12      149.077
       779.20000  3.20526e-12      149.109
       779.30000  3.20526e-12      149.173
       779.40000  3.20526e-12      149.205
       779.50000  2.57797e-12      120.030
       779.60000  2.57797e-12      120.056
       779.70000  2.57797e-12      120.082
       779.80000  2.57797e-12      120.107
       779.90000  2.57797e-12      120.133
       780.00000  2.57797e-12      120.159
       780.10000  2.57797e-12      120.159
       780.20000  2.57797e-12      120.185
       780.30000  2.57797e-12      120.185
       780.40000  2.57797e-12      120.185
       780.50000  1.62617e-12      75.8119
       780.60000  1.62617e-12      75.8119
       780.70000  1.62617e-12      75.8119
       780.80000  1.62617e-12      75.8119
       780.90000  1.62617e-12      75.8119
       781.00000  1.62617e-12      75.7957
       781.10000  1.62617e-12      75.7957
       781.20000  1.62617e-12      75.7794
       781.30000  1.61150e-12      75.0797
       781.40000  1.61150e-12      75.0636
       781.50000  5.11848e-13      23.8368
       781.60000  5.11848e-13      23.8317
       781.70000  5.11848e-13      23.8265
       781.80000  5.11848e-13      23.8214
       781.90000  5.11848e-13      23.8112
       782.00000  5.11848e-13      23.8061
       782.10000  5.11848e-13      23.7958
       782.20000  5.11848e-13      23.7856
       782.30000  5.11848e-13      23.7805
       782.40000  5.11848e-13      23.7702
       782.50000  1.01221e-12      46.9869
       782.60000  1.01221e-12      46.9566
       782.70000  1.01221e-12      46.9363
       782.80000  1.01221e-12      46.9161
       782.90000  1.01221e-12      46.8857
       783.00000  1.01221e-12      46.8655
       783.10000  1.01221e-12      46.8857
       783.20000  1.01221e-12      46.9060
       783.30000  1.01221e-12      46.9262
       783.40000  1.01221e-12      46.9363
       783.50000  3.98367e-12      184.803
       783.60000  3.98367e-12      184.882
       783.70000  3.98367e-12      184.922
       783.80000  3.94734e-12      183.315
       783.90000  3.94734e-12      183.394
       784.00000  3.94734e-12      183.433
       784.10000  3.94734e-12      183.473
       784.20000  3.94734e-12      183.551
       784.30000  3.94734e-12      183.591
       784.40000  3.94734e-12      183.630
       784.50000  1.00232e-12      46.6381
       784.60000  1.00232e-12      46.6481
       784.70000  1.00232e-12      46.6582
       784.80000  1.00232e-12      46.6682
       784.90000  1.00232e-12      46.6782
       785.00000  1.00232e-12      46.6782
       785.10000  1.00232e-12      46.6782
       785.20000  1.00232e-12      46.6782
       785.30000  1.00232e-12      46.6782
       785.40000  1.00232e-12      46.6782
       785.50000  9.57054e-13      44.5700
       785.60000  9.57054e-13      44.5700
       785.70000  9.57054e-13      44.5700
       785.80000  9.57054e-13      44.5700
       785.90000  9.57054e-13      44.5700
       786.00000  9.57054e-13      44.5700
       786.10000  9.57054e-13      44.5700
       786.20000  9.57054e-13      44.5700
       786.30000  9.45781e-13      44.0450
       786.40000  9.45781e-13      44.0450
       786.50000  2.92835e-12      136.373
       786.60000  2.92835e-12      136.373
       786.70000  2.92835e-12      136.373
       786.80000  2.92835e-12      136.373
       786.90000  2.92835e-12      136.373
       787.00000  2.92835e-12      136.373
       787.10000  2.92835e-12      136.373
       787.20000  2.92835e-12      136.373
       787.30000  2.92835e-12      136.373
       787.40000  2.92835e-12      136.373
       787.50000  2.98137e-12      138.843
       787.60000  2.98137e-12      138.843
       787.70000  2.98137e-12      138.843
       787.80000  2.98137e-12      138.843
       787.90000  2.98137e-12      138.843
       788.00000  2.98137e-12      138.843
       788.10000  2.98137e-12      138.843
       788.20000  2.98137e-12      138.843
       788.30000  2.98137e-12      138.843
       788.40000  2.98137e-12      138.843
       788.50000  4.27277e-12      198.983
       788.60000  4.27277e-12      198.983
       788.70000  4.27277e-12      198.983
       788.80000  4.22071e-12      196.558
       788.90000  4.22071e-12      196.558
       789.00000  4.22071e-12      196.558
       789.10000  4.22071e-12      196.474
       789.20000  4.22071e-12      196.347
       789.30000  4.22071e-12      196.221
       789.40000  4.22071e-12      196.136
       789.50000  3.20705e-12      148.935
       789.60000  3.20705e-12      148.839
       789.70000  3.20705e-12      148.775
       789.80000  3.20705e-12      148.679
       789.90000  3.20705e-12      148.583
       790.00000  3.20705e-12      148.518
       790.10000  3.20705e-12      148.422
       790.20000  3.20705e-12      148.358
       790.30000  3.20705e-12      148.262
       790.40000  3.20705e-12      148.198
       790.50000  4.11727e-12      190.136
       790.60000  4.11727e-12      190.012
       790.70000  4.11727e-12      189.930
       790.80000  4.11727e-12      189.806
       790.90000  4.11727e-12      189.724
       791.00000  4.11727e-12      189.600
       791.10000  4.11727e-12      189.477
       791.20000  4.11727e-12      189.394
       791.30000  4.05495e-12      186.406
       791.40000  4.05495e-12      186.284
       791.50000  2.28500e-12      104.904
       791.60000  2.28500e-12      104.836
       791.70000  2.28500e-12      104.790
       791.80000  2.28500e-12      104.721
       791.90000  2.28500e-12      104.676
       792.00000  2.28500e-12      104.607
       792.10000  2.28500e-12      104.561
       792.20000  2.28500e-12      104.516
       792.30000  2.28500e-12      104.447
       792.40000  2.28500e-12      104.402
       792.50000  3.36298e-12      153.588
       792.60000  3.36298e-12      153.520
       792.70000  3.36298e-12      153.453
       792.80000  3.36298e-12      153.386
       792.90000  3.36298e-12      153.318
       793.00000  3.36298e-12      153.251
       793.10000  3.36298e-12      153.150
       793.20000  3.36298e-12      153.016
       793.30000  3.36298e-12      152.915
       793.40000  3.36298e-12      152.814
       793.50000  2.03084e-12      92.2206
       793.60000  2.03084e-12      92.1799
       793.70000  2.03084e-12      92.1190
       793.80000  1.99571e-12      90.5056
       793.90000  1.99571e-12      90.4656
       794.00000  1.99571e-12      90.4457
       794.10000  1.99571e-12      90.4058
       794.20000  1.99571e-12      90.4058
       794.30000  1.99571e-12      90.3858
       794.40000  1.99571e-12      90.3858
       794.50000  3.04397e-12      137.861
       794.60000  3.04397e-12      137.861
       794.70000  3.04397e-12      137.892
       794.80000  3.04397e-12      137.892
       794.90000  3.04397e-12      137.922
       795.00000  3.04397e-12      137.983
       795.10000  3.04397e-12      138.196
       795.20000  3.04397e-12      138.409
       795.30000  3.04397e-12      138.622
       795.40000  3.04397e-12      138.836
       795.50000  4.32776e-12      197.649
       795.60000  4.32776e-12      197.908
       795.70000  4.32776e-12      198.125
       795.80000  4.32776e-12      198.341
       795.90000  4.32776e-12      198.558
       796.00000  4.32776e-12      198.731
       796.10000  4.32776e-12      198.904
       796.20000  4.32776e-12      199.077
       796.30000  4.23719e-12      195.038
       796.40000  4.23719e-12      195.165
       796.50000  2.26677e-12      104.475
       796.60000  2.26677e-12      104.521
       796.70000  2.26677e-12      104.566
       796.80000  2.26677e-12      104.589
       796.90000  2.26677e-12      104.611
       797.00000  2.26677e-12      104.634
       797.10000  2.26677e-12      104.657
       797.20000  2.26677e-12      104.657
       797.30000  2.26677e-12      104.657
       797.40000  2.26677e-12      104.634
       797.50000  4.43955e-12      204.885
       797.60000  4.43955e-12      204.841
       797.70000  4.43955e-12      204.752
       797.80000  4.43955e-12      204.663
       797.90000  4.43955e-12      204.575
       798.00000  4.43955e-12      204.441
       798.10000  4.43955e-12      204.308
       798.20000  4.43955e-12      204.175
       798.30000  4.43955e-12      203.997
       798.40000  4.43955e-12      203.820
       798.50000  4.15729e-12      190.695
       798.60000  4.15729e-12      190.487
       798.70000  4.15729e-12      190.279
       798.80000  4.06051e-12      185.647
       798.90000  4.06051e-12      185.403
       799.00000  4.06051e-12      185.159
       799.10000  4.06051e-12      185.281
       799.20000  4.06051e-12      185.444
       799.30000  4.06051e-12      185.606
       799.40000  4.06051e-12      185.728
       799.50000  3.67792e-12      168.338
       799.60000  3.67792e-12      168.449
       799.70000  3.67792e-12      168.559
       799.80000  3.67792e-12      168.633
       799.90000  3.67792e-12      168.706
       800.00000  3.67792e-12      168.780
       800.10000  3.67792e-12      168.853
       800.20000  3.67792e-12      168.927
       800.30000  3.67792e-12      169.000
       800.40000  3.67792e-12      169.037
       800.50000  2.49677e-12      114.777
       800.60000  2.49677e-12      114.802
       800.70000  2.49677e-12      114.802
       800.80000  2.49677e-12      114.827
       800.90000  2.49677e-12      114.827
       801.00000  2.49677e-12      114.827
       801.10000  2.49677e-12      114.777
       801.20000  2.49677e-12      114.727
       801.30000  2.43922e-12      112.033
       801.40000  2.43922e-12      111.984
       801.50000  2.58173e-12      118.476
       801.60000  2.58173e-12      118.424
       801.70000  2.58173e-12      118.372
       801.80000  2.58173e-12      118.321
       801.90000  2.58173e-12      118.269
       802.00000  2.58173e-12      118.217
       802.10000  2.58173e-12      118.166
       802.20000  2.58173e-12      118.114
       802.30000  2.58173e-12      118.063
       802.40000  2.58173e-12      118.011
       802.50000  5.56596e-12      254.309
       802.60000  5.56596e-12      254.197
       802.70000  5.56596e-12      254.086
       802.80000  5.56596e-12      253.919
       802.90000  5.56596e-12      253.808
       803.00000  5.56596e-12      253.696
       803.10000  5.56596e-12      253.585
       803.20000  5.56596e-12      253.474
       803.30000  5.56596e-12      253.362
       803.40000  5.56596e-12      253.195
       803.50000  2.90048e-12      131.885
       803.60000  2.90048e-12      131.827
       803.70000  2.90048e-12      131.769
       803.80000  2.83251e-12      128.624
       803.90000  2.83251e-12      128.539
       804.00000  2.83251e-12      128.482
       804.10000  2.83251e-12      128.426
       804.20000  2.83251e-12      128.369
       804.30000  2.83251e-12      128.284
       804.40000  2.83251e-12      128.228
       804.50000  2.57437e-12      116.490
       804.60000  2.57437e-12      116.413
       804.70000  2.57437e-12      116.362
       804.80000  2.57437e-12      116.310
       804.90000  2.57437e-12      116.233
       805.00000  2.57437e-12      116.181
       805.10000  2.57437e-12      116.284
       805.20000  2.57437e-12      116.413
       805.30000  2.57437e-12      116.490
       805.40000  2.57437e-12      116.593
       805.50000  2.68693e-12      121.771
       805.60000  2.68693e-12      121.852
       805.70000  2.68693e-12      121.933
       805.80000  2.68693e-12      121.986
       805.90000  2.68693e-12      122.040
       806.00000  2.68693e-12      122.094
       806.10000  2.68693e-12      122.121
       806.20000  2.68693e-12      122.148
       806.30000  2.61966e-12      119.116
       806.40000  2.61966e-12      119.142
       806.50000  2.06208e-12      93.7835
       806.60000  2.06208e-12      93.7835
       806.70000  2.06208e-12      93.7628
       806.80000  2.06208e-12      93.7628
       806.90000  2.06208e-12      93.7422
       807.00000  2.06208e-12      93.7010
       807.10000  2.06208e-12      93.5360
       807.20000  2.06208e-12      93.3504
       807.30000  2.06208e-12      93.1855
       807.40000  2.06208e-12      93.0411
       807.50000  1.97524e-12      88.9847
       807.60000  1.97524e-12      88.8464
       807.70000  1.97524e-12      88.7279
       807.80000  1.97524e-12      88.6292
       807.90000  1.97524e-12      88.5304
       808.00000  1.97524e-12      88.4316
       808.10000  1.97524e-12      88.3526
       808.20000  1.97524e-12      88.2736
       808.30000  1.97524e-12      88.1946
       808.40000  1.97524e-12      88.1353
       808.50000  2.36839e-12      105.630
       808.60000  2.36839e-12      105.583
       808.70000  2.36839e-12      105.535
       808.80000  2.30933e-12      102.881
       808.90000  2.30933e-12      102.858
       809.00000  2.30933e-12      102.858
       809.10000  2.30933e-12      102.858
       809.20000  2.30933e-12      102.881
       809.30000  2.30933e-12      102.904
       809.40000  2.30933e-12      102.927
       809.50000  2.85837e-12      127.454
       809.60000  2.85837e-12      127.540
       809.70000  2.85837e-12      127.626
       809.80000  2.85837e-12      127.712
       809.90000  2.85837e-12      127.826
       810.00000  2.85837e-12      127.940
       810.10000  2.85837e-12      128.083
       810.20000  2.85837e-12      128.226
       810.30000  2.85837e-12      128.369
       810.40000  2.85837e-12      128.541
       810.50000  1.12946e-12      50.8707
       810.60000  1.12946e-12      50.9385
       810.70000  1.12946e-12      51.0288
       810.80000  1.12946e-12      51.1192
       810.90000  1.12946e-12      51.2095
       811.00000  1.12946e-12      51.3112
       811.10000  1.12946e-12      51.3225
       811.20000  1.12946e-12      51.3451
       811.30000  1.10090e-12      50.0578
       811.40000  1.10090e-12      50.0798
       811.50000  2.46436e-12      112.128
       811.60000  2.46436e-12      112.153
       811.70000  2.46436e-12      112.178
       811.80000  2.46436e-12      112.202
       811.90000  2.46436e-12      112.227
       812.00000  2.46436e-12      112.252
       812.10000  2.46436e-12      112.252
       812.20000  2.46436e-12      112.276
       812.30000  2.46436e-12      112.301
       812.40000  2.46436e-12      112.301
       812.50000  2.77864e-12      126.623
       812.60000  2.77864e-12      126.651
       812.70000  2.77864e-12      126.651
       812.80000  2.77864e-12      126.651
       812.90000  2.77864e-12      126.651
       813.00000  2.77864e-12      126.651
       813.10000  2.77864e-12      126.595
       813.20000  2.77864e-12      126.567
       813.30000  2.77864e-12      126.512
       813.40000  2.77864e-12      126.484
       813.50000  3.21185e-12      146.139
       813.60000  3.21185e-12      146.107
       813.70000  3.21185e-12      146.075
       813.80000  3.13372e-12      142.490
       813.90000  3.13372e-12      142.459
       814.00000  3.13372e-12      142.396
       814.10000  3.13372e-12      142.365
       814.20000  3.13372e-12      142.333
       814.30000  3.13372e-12      142.302
       814.40000  3.13372e-12      142.302
       814.50000  1.31363e-12      59.6386
       814.60000  1.31363e-12      59.6255
       814.70000  1.31363e-12      59.6123
       814.80000  1.31363e-12      59.5992
       814.90000  1.31363e-12      59.5992
       815.00000  1.31363e-12      59.5861
       815.10000  1.31363e-12      59.6386
       815.20000  1.31363e-12      59.6780
       815.30000  1.31363e-12      59.7174
       815.40000  1.31363e-12      59.7437
       815.50000  1.91342e-12      87.0799
       815.60000  1.91342e-12      87.0990
       815.70000  1.91342e-12      87.1373
       815.80000  1.91342e-12      87.1373
       815.90000  1.91342e-12      87.1564
       816.00000  1.91342e-12      87.1564
       816.10000  1.91342e-12      87.1564
       816.20000  1.91342e-12      87.1373
       816.30000  1.86533e-12      84.9285
       816.40000  1.86533e-12      84.9099
       816.50000  2.35771e-12      107.276
       816.60000  2.35771e-12      107.229
       816.70000  2.35771e-12      107.158
       816.80000  2.35771e-12      107.087
       816.90000  2.35771e-12      107.017
       817.00000  2.35771e-12      106.922
       817.10000  2.35771e-12      106.592
       817.20000  2.35771e-12      106.286
       817.30000  2.35771e-12      106.003
       817.40000  2.35771e-12      105.720
       817.50000  2.33872e-12      104.611
       817.60000  2.33872e-12      104.377
       817.70000  2.33872e-12      104.143
       817.80000  2.33872e-12      103.909
       817.90000  2.33872e-12      103.722
       818.00000  2.33872e-12      103.512
       818.10000  2.33872e-12      103.348
       818.20000  2.33872e-12      103.184
       818.30000  2.33872e-12      103.021
       818.40000  2.33872e-12      102.904
       818.50000  1.65144e-12      72.5643
       818.60000  1.65144e-12      72.4982
       818.70000  1.65144e-12      72.4321
       818.80000  1.60960e-12      70.5328
       818.90000  1.60960e-12      70.5006
       819.00000  1.60960e-12      70.4523
       819.10000  1.60960e-12      70.4362
       819.20000  1.60960e-12      70.4201
       819.30000  1.60960e-12      70.4040
       819.40000  1.60960e-12      70.4040
       819.50000  2.03514e-12      89.0372
       819.60000  2.03514e-12      89.0575
       819.70000  2.03514e-12      89.0982
       819.80000  2.03514e-12      89.1593
       819.90000  2.03514e-12      89.2204
       820.00000  2.03514e-12      89.3018
       820.10000  2.03514e-12      89.3832
       820.20000  2.03514e-12      89.4849
       820.30000  2.03514e-12      89.6070
       820.40000  2.03514e-12      89.7291
       820.50000  3.34815e-12      147.854
       820.60000  3.34815e-12      148.089
       820.70000  3.34815e-12      148.357
       820.80000  3.34815e-12      148.625
       820.90000  3.34815e-12      148.926
       821.00000  3.34815e-12      149.261
       821.10000  3.34815e-12      149.194
       821.20000  3.34815e-12      149.160
       821.30000  3.27094e-12      145.655
       821.40000  3.27094e-12      145.622
       821.50000  3.87445e-12      172.413
       821.60000  3.87445e-12      172.374
       821.70000  3.87445e-12      172.335
       821.80000  3.87445e-12      172.258
       821.90000  3.87445e-12      172.219
       822.00000  3.87445e-12      172.180
       822.10000  3.87445e-12      172.180
       822.20000  3.87445e-12      172.142
       822.30000  3.87445e-12      172.103
       822.40000  3.87445e-12      172.103
       822.50000  1.94462e-12      86.3607
       822.60000  1.94462e-12      86.3607
       822.70000  1.94462e-12      86.3412
       822.80000  1.94462e-12      86.3412
       822.90000  1.94462e-12      86.3412
       823.00000  1.94462e-12      86.3412
       823.10000  1.94462e-12      86.3412
       823.20000  1.94462e-12      86.3412
       823.30000  1.94462e-12      86.3412
       823.40000  1.94462e-12      86.3412
       823.50000  1.65532e-12      73.5127
       823.60000  1.65532e-12      73.5127
       823.70000  1.65532e-12      73.5293
       823.80000  1.61852e-12      71.8948
       823.90000  1.61852e-12      71.9110
       824.00000  1.61852e-12      71.9272
       824.10000  1.61852e-12      71.9433
       824.20000  1.61852e-12      71.9595
       824.30000  1.61852e-12      71.9757
       824.40000  1.61852e-12      72.0081
       824.50000  3.50191e-12      155.835
       824.60000  3.50191e-12      155.905
       824.70000  3.50191e-12      155.940
       824.80000  3.50191e-12      156.010
       824.90000  3.50191e-12      156.080
       825.00000  3.50191e-12      156.150
       825.10000  3.50191e-12      156.220
       825.20000  3.50191e-12      156.290
       825.30000  3.50191e-12      156.395
       825.40000  3.50191e-12      156.465
       825.50000  2.16907e-12      96.9792
       825.60000  2.16907e-12      97.0226
       825.70000  2.16907e-12      97.0877
       825.80000  2.16907e-12      97.1528
       825.90000  2.16907e-12      97.2178
       826.00000  2.16907e-12      97.2829
       826.10000  2.16907e-12      97.3480
       826.20000  2.16907e-12      97.3914
       826.30000  2.12492e-12      95.4727
       826.40000  2.12492e-12      95.5152
       826.50000  2.44833e-12      110.077
       826.60000  2.44833e-12      110.126
       826.70000  2.44833e-12      110.175
       826.80000  2.44833e-12      110.200
       826.90000  2.44833e-12      110.224
       827.00000  2.44833e-12      110.248
       827.10000  2.44833e-12      110.248
       827.20000  2.44833e-12      110.273
       827.30000  2.44833e-12      110.273
       827.40000  2.44833e-12      110.273
       827.50000  2.53294e-12      114.084
       827.60000  2.53294e-12      114.084
       827.70000  2.53294e-12      114.058
       827.80000  2.53294e-12      114.033
       827.90000  2.53294e-12      114.008
       828.00000  2.53294e-12      113.982
       828.10000  2.53294e-12      113.906
       828.20000  2.53294e-12      113.805
       828.30000  2.53294e-12      113.704
       828.40000  2.53294e-12      113.602
       828.50000  1.73569e-12      77.7935
       828.60000  1.73569e-12      77.7240
       828.70000  1.73569e-12      77.6720
       828.80000  1.70161e-12      76.0958
       828.90000  1.70161e-12      76.0277
       829.00000  1.70161e-12      75.9767
       829.10000  1.70161e-12      75.9256
       829.20000  1.70161e-12      75.8746
       829.30000  1.70161e-12      75.8235
       829.40000  1.70161e-12      75.7725
       829.50000  2.08565e-12      92.8115
       829.60000  2.08565e-12      92.7489
       829.70000  2.08565e-12      92.6863
       829.80000  2.08565e-12      92.6238
       829.90000  2.08565e-12      92.5821
       830.00000  2.08565e-12      92.5195
       830.10000  2.08565e-12      92.4778
       830.20000  2.08565e-12      92.4152
       830.30000  2.08565e-12      92.3735
       830.40000  2.08565e-12      92.3109
       830.50000  1.66433e-12      73.6299
       830.60000  1.66433e-12      73.5966
       830.70000  1.66433e-12      73.5467
       830.80000  1.66433e-12      73.5134
       830.90000  1.66433e-12      73.4801
       831.00000  1.66433e-12      73.4468
       831.10000  1.66433e-12      73.4135
       831.20000  1.66433e-12      73.3802
       831.30000  1.63116e-12      71.9017
       831.40000  1.63116e-12      71.8691
       831.50000  1.90339e-12      83.8254
       831.60000  1.90339e-12      83.8063
       831.70000  1.90339e-12      83.7683
       831.80000  1.90339e-12      83.7302
       831.90000  1.90339e-12      83.7112
       832.00000  1.90339e-12      83.6921
       832.10000  1.90339e-12      83.6160
       832.20000  1.90339e-12      83.5399
       832.30000  1.90339e-12      83.4828
       832.40000  1.90339e-12      83.4257
       832.50000  1.17142e-12      51.3082
       832.60000  1.17142e-12      51.2848
       832.70000  1.17142e-12      51.2614
       832.80000  1.17142e-12      51.2262
       832.90000  1.17142e-12      51.2145
       833.00000  1.17142e-12      51.1911
       833.10000  1.17142e-12      51.1677
       833.20000  1.17142e-12      51.1559
       833.30000  1.17142e-12      51.1442
       833.40000  1.17142e-12      51.1325
       833.50000  4.72707e-13      20.6336
       833.60000  4.72707e-13      20.6289
       833.70000  4.72707e-13      20.6289
       833.80000  4.63885e-13      20.2439
       833.90000  4.63885e-13      20.2486
       834.00000  4.63885e-13      20.2486
       834.10000  4.63885e-13      20.2718
       834.20000  4.63885e-13      20.2903
       834.30000  4.63885e-13      20.3135
       834.40000  4.63885e-13      20.3321
       834.50000  1.77046e-12      77.6701
       834.60000  1.77046e-12      77.7409
       834.70000  1.77046e-12      77.7940
       834.80000  1.77046e-12      77.8471
       834.90000  1.77046e-12      77.9179
       835.00000  1.77046e-12      77.9710
       835.10000  1.77046e-12      78.0065
       835.20000  1.77046e-12      78.0596
       835.30000  1.77046e-12      78.0950
       835.40000  1.77046e-12      78.1304
       835.50000  1.47572e-12      65.1532
       835.60000  1.47572e-12      65.1827
       835.70000  1.47572e-12      65.1975
       835.80000  1.47572e-12      65.2270
       835.90000  1.47572e-12      65.2418
       836.00000  1.47572e-12      65.2565
       836.10000  1.47572e-12      65.2270
       836.20000  1.47572e-12      65.2122
       836.30000  1.45187e-12      64.1292
       836.40000  1.45187e-12      64.1147
       836.50000  6.67093e-13      29.4522
       836.60000  6.67093e-13      29.4388
       836.70000  6.67093e-13      29.4322
       836.80000  6.67093e-13      29.4255
       836.90000  6.67093e-13      29.4121
       837.00000  6.67093e-13      29.4055
       837.10000  6.67093e-13      29.3988
       837.20000  6.67093e-13      29.3921
       837.30000  6.67093e-13      29.3855
       837.40000  6.67093e-13      29.3788
       837.50000  1.60608e-12      70.7159
       837.60000  1.60608e-12      70.6998
       837.70000  1.60608e-12      70.6838
       837.80000  1.60608e-12      70.6677
       837.90000  1.60608e-12      70.6677
       838.00000  1.60608e-12      70.6517
       838.10000  1.60608e-12      70.6356
       838.20000  1.60608e-12      70.6356
       838.30000  1.60608e-12      70.6356
       838.40000  1.60608e-12      70.6356
       838.50000  1.75143e-12      77.0105
       838.60000  1.75143e-12      77.0105
       838.70000  1.75143e-12      77.0105
       838.80000  1.72568e-12      75.8611
       838.90000  1.72568e-12      75.8611
       839.00000  1.72568e-12      75.8611
       839.10000  1.72568e-12      75.8438
       839.20000  1.72568e-12      75.8438
       839.30000  1.72568e-12      75.8438
       839.40000  1.72568e-12      75.8265
       839.50000  9.32557e-13      40.9766
       839.60000  9.32557e-13      40.9766
       839.70000  9.32557e-13      40.9672
       839.80000  9.32557e-13      40.9672
       839.90000  9.32557e-13      40.9672
       840.00000  9.32557e-13      40.9579
       840.10000  9.32557e-13      40.9579
       840.20000  9.32557e-13      40.9579
       840.30000  9.32557e-13      40.9486
       840.40000  9.32557e-13      40.9486
       840.50000  1.49773e-12      65.7652
       840.60000  1.49773e-12      65.7503
       840.70000  1.49773e-12      65.7503
       840.80000  1.49773e-12      65.7503
       840.90000  1.49773e-12      65.7353
       841.00000  1.49773e-12      65.7353
       841.10000  1.49773e-12      65.7353
       841.20000  1.49773e-12      65.7353
       841.30000  1.47348e-12      64.6562
       841.40000  1.47348e-12      64.6562
       841.50000  1.31460e-12      57.6845
       841.60000  1.31460e-12      57.6714
       841.70000  1.31460e-12      57.6714
       841.80000  1.31460e-12      57.6714
       841.90000  1.31460e-12      57.6582
       842.00000  1.31460e-12      57.6582
       842.10000  1.31460e-12      57.6057
       842.20000  1.31460e-12      57.5662
       842.30000  1.31460e-12      57.5268
       842.40000  1.31460e-12      57.4742
       842.50000  2.34258e-12      102.347
       842.60000  2.34258e-12      102.300
       842.70000  2.34258e-12      102.230
       842.80000  2.34258e-12      102.183
       842.90000  2.34258e-12      102.113
       843.00000  2.34258e-12      102.066
       843.10000  2.34258e-12      102.019
       843.20000  2.34258e-12      101.972
       843.30000  2.34258e-12      101.949
       843.40000  2.34258e-12      101.902
       843.50000  1.21532e-12      52.8544
       843.60000  1.21532e-12      52.8422
       843.70000  1.21532e-12      52.8301
       843.80000  1.19413e-12      51.8967
       843.90000  1.19413e-12      51.8967
       844.00000  1.19413e-12      51.8848
       844.10000  1.19413e-12      51.9206
       844.20000  1.19413e-12      51.9445
       844.30000  1.19413e-12      51.9684
       844.40000  1.19413e-12      51.9922
       844.50000  2.15537e-12      93.8879
       844.60000  2.15537e-12      93.9310
       844.70000  2.15537e-12      93.9526
       844.80000  2.15537e-12      93.9957
       844.90000  2.15537e-12      94.0172
       845.00000  2.15537e-12      94.0603
       845.10000  2.15537e-12      94.0819
       845.20000  2.15537e-12      94.1035
       845.30000  2.15537e-12      94.1466
       845.40000  2.15537e-12      94.1681
       845.50000  1.47525e-12      64.4536
       845.60000  1.47525e-12      64.4683
       845.70000  1.47525e-12      64.4831
       845.80000  1.47525e-12      64.4978
       845.90000  1.47525e-12      64.4978
       846.00000  1.47525e-12      64.5126
       846.10000  1.47525e-12      64.5126
       846.20000  1.47525e-12      64.5126
       846.30000  1.44763e-12      63.3048
       846.40000  1.44763e-12      63.3193
       846.50000  1.05176e-12      46.0041
       846.60000  1.05176e-12      45.9936
       846.70000  1.05176e-12      45.9936
       846.80000  1.05176e-12      45.9936
       846.90000  1.05176e-12      45.9830
       847.00000  1.05176e-12      45.9830
       847.10000  1.05176e-12      45.9725
       847.20000  1.05176e-12      45.9725
       847.30000  1.05176e-12      45.9620
       847.40000  1.05176e-12      45.9515
       847.50000  1.60306e-12      70.0215
       847.60000  1.60306e-12      70.0055
       847.70000  1.60306e-12      69.9895
       847.80000  1.60306e-12      69.9734
       847.90000  1.60306e-12      69.9414
       848.00000  1.60306e-12      69.9253
       848.10000  1.60306e-12      69.5887
       848.20000  1.60306e-12      69.2841
       848.30000  1.60306e-12      68.9795
       848.40000  1.60306e-12      68.6910
       848.50000  1.31513e-12      56.1299
       848.60000  1.31513e-12      55.9326
       848.70000  1.31513e-12      55.7353
       848.80000  1.29108e-12      54.5352
       848.90000  1.29108e-12      54.3674
       849.00000  1.29108e-12      54.2124
       849.10000  1.29108e-12      54.0575
       849.20000  1.29108e-12      53.9284
       849.30000  1.29108e-12      53.8122
       849.40000  1.29108e-12      53.6960
       849.50000  8.69636e-12      361.073
       849.60000  8.69636e-12      360.464
       849.70000  8.69636e-12      360.029
       849.80000  8.69636e-12      359.594
       849.90000  8.69636e-12      359.247
       850.00000  8.69636e-12      358.986
       850.10000  8.69636e-12      360.899
       850.20000  8.69636e-12      362.725
       850.30000  8.69636e-12      364.377
       850.40000  8.69636e-12      365.856
       850.50000  1.02209e-11      431.629
       850.60000  1.02209e-11      433.060
       850.70000  1.02209e-11      434.286
       850.80000  1.02209e-11      435.411
       850.90000  1.02209e-11      436.331
       851.00000  1.02209e-11      437.148
       851.10000  1.02209e-11      437.762
       851.20000  1.02209e-11      438.273
       851.30000  1.00448e-11      431.022
       851.40000  1.00448e-11      431.122
       851.50000  7.78166e-12      333.989
       851.60000  7.78166e-12      333.833
       851.70000  7.78166e-12      333.600
       851.80000  7.78166e-12      333.211
       851.90000  7.78166e-12      332.666
       852.00000  7.78166e-12      332.044
       852.10000  7.78166e-12      331.265
       852.20000  7.78166e-12      330.409
       852.30000  7.78166e-12      329.398
       852.40000  7.78166e-12      328.308
       852.50000  6.17551e-12      259.495
       852.60000  6.17551e-12      258.445
       852.70000  6.17551e-12      257.210
       852.80000  6.17551e-12      255.975
       852.90000  6.17551e-12      254.555
       853.00000  6.17551e-12      253.072
       853.10000  6.17551e-12      251.467
       853.20000  6.17551e-12      249.799
       853.30000  6.17551e-12      248.008
       853.40000  6.17551e-12      246.156
       853.50000  7.35072e-12      290.647
       853.60000  7.35072e-12      288.148
       853.70000  7.35072e-12      285.575
       853.80000  7.22492e-12      278.015
       853.90000  7.22492e-12      275.269
       854.00000  7.22492e-12      272.379
       854.10000  7.22492e-12      274.402
       854.20000  7.22492e-12      276.425
       854.30000  7.22492e-12      278.376
       854.40000  7.22492e-12      280.255
       854.50000  8.06183e-12      314.734
       854.60000  8.06183e-12      316.749
       854.70000  8.06183e-12      318.684
       854.80000  8.06183e-12      320.539
       854.90000  8.06183e-12      322.393
       855.00000  8.06183e-12      324.166
       855.10000  8.06183e-12      325.859
       855.20000  8.06183e-12      327.472
       855.30000  8.06183e-12      329.084
       855.40000  8.06183e-12      330.535
       855.50000  6.17010e-12      254.146
       855.60000  6.17010e-12      255.195
       855.70000  6.17010e-12      256.244
       855.80000  6.17010e-12      257.231
       855.90000  6.17010e-12      258.157
       856.00000  6.17010e-12      259.021
       856.10000  6.17010e-12      259.699
       856.20000  6.17010e-12      260.316
       856.30000  6.04546e-12      255.663
       856.40000  6.04546e-12      256.267
       856.50000  8.91085e-12      378.533
       856.60000  8.91085e-12      379.335
       856.70000  8.91085e-12      380.048
       856.80000  8.91085e-12      380.761
       856.90000  8.91085e-12      381.384
       857.00000  8.91085e-12      382.008
       857.10000  8.91085e-12      382.632
       857.20000  8.91085e-12      383.167
       857.30000  8.91085e-12      383.701
       857.40000  8.91085e-12      384.147
       857.50000  4.85083e-12      209.362
       857.60000  4.85083e-12      209.604
       857.70000  4.85083e-12      209.798
       857.80000  4.85083e-12      209.992
       857.90000  4.85083e-12      210.138
       858.00000  4.85083e-12      210.332
       858.10000  4.85083e-12      210.429
       858.20000  4.85083e-12      210.526
       858.30000  4.85083e-12      210.623
       858.40000  4.85083e-12      210.671
       858.50000  7.92259e-12      344.157
       858.60000  7.92259e-12      344.236
       858.70000  7.92259e-12      344.236
       858.80000  7.75314e-12      336.874
       858.90000  7.75314e-12      336.797
       859.00000  7.75314e-12      336.719
       859.10000  7.75314e-12      336.642
       859.20000  7.75314e-12      336.486
       859.30000  7.75314e-12      336.331
       859.40000  7.75314e-12      336.099
       859.50000  3.25235e-12      140.892
       859.60000  3.25235e-12      140.794
       859.70000  3.25235e-12      140.664
       859.80000  3.25235e-12      140.501
       859.90000  3.25235e-12      140.371
       860.00000  3.25235e-12      140.209
       860.10000  3.25235e-12      140.176
       860.20000  3.25235e-12      140.144
       860.30000  3.25235e-12      140.144
       860.40000  3.25235e-12      140.144
       860.50000  7.31801e-12      315.260
       860.60000  7.31801e-12      315.260
       860.70000  7.31801e-12      315.260
       860.80000  7.31801e-12      315.260
       860.90000  7.31801e-12      315.260
       861.00000  7.31801e-12      315.260
       861.10000  7.31801e-12      315.260
       861.20000  7.31801e-12      315.260
       861.30000  7.16244e-12      308.558
       861.40000  7.16244e-12      308.629
       861.50000  9.50761e-12      409.683
       861.60000  9.50761e-12      409.683
       861.70000  9.50761e-12      409.778
       861.80000  9.50761e-12      409.873
       861.90000  9.50761e-12      409.873
       862.00000  9.50761e-12      409.968
       862.10000  9.50761e-12      411.299
       862.20000  9.50761e-12      412.440
       862.30000  9.50761e-12      413.486
       862.40000  9.50761e-12      414.437
       862.50000  9.16302e-12      400.149
       862.60000  9.16302e-12      400.790
       862.70000  9.16302e-12      401.340
       862.80000  9.16302e-12      401.798
       862.90000  9.16302e-12      402.073
       863.00000  9.16302e-12      402.256
       863.10000  9.16302e-12      402.348
       863.20000  9.16302e-12      402.348
       863.30000  9.16302e-12      402.165
       863.40000  9.16302e-12      401.890
       863.50000  7.52538e-12      329.762
       863.60000  7.52538e-12      329.310
       863.70000  7.52538e-12      328.784
       863.80000  7.36448e-12      321.165
       863.90000  7.36448e-12      320.502
       864.00000  7.36448e-12      319.692
       864.10000  7.36448e-12      318.808
       864.20000  7.36448e-12      317.851
       864.30000  7.36448e-12      316.746
       864.40000  7.36448e-12      315.642
       864.50000  3.77535e-12      161.132
       864.60000  3.77535e-12      160.452
       864.70000  3.77535e-12      159.697
       864.80000  3.77535e-12      158.942
       864.90000  3.77535e-12      158.074
       865.00000  3.77535e-12      157.205
       865.10000  3.77535e-12      156.262
       865.20000  3.77535e-12      155.280
       865.30000  3.77535e-12      154.261
       865.40000  3.77535e-12      153.166
       865.50000  5.98674e-12      241.086
       865.60000  5.98674e-12      239.230
       865.70000  5.98674e-12      237.314
       865.80000  5.98674e-12      235.279
       865.90000  5.98674e-12      233.183
       866.00000  5.98674e-12      231.028
       866.10000  5.98674e-12      231.866
       866.20000  5.98674e-12      232.645
       866.30000  5.85940e-12      228.517
       866.40000  5.85940e-12      229.278
       866.50000  4.83881e-12      189.971
       866.60000  4.83881e-12      190.601
       866.70000  4.83881e-12      191.230
       866.80000  4.83881e-12      191.859
       866.90000  4.83881e-12      192.439
       867.00000  4.83881e-12      193.020
       867.10000  4.83881e-12      193.601
       867.20000  4.83881e-12      194.181
       867.30000  4.83881e-12      194.762
       867.40000  4.83881e-12      195.294
       867.50000  1.05486e-11      426.902
       867.60000  1.05486e-11      428.062
       867.70000  1.05486e-11      429.222
       867.80000  1.05486e-11      430.383
       867.90000  1.05486e-11      431.438
       868.00000  1.05486e-11      432.492
       868.10000  1.05486e-11      433.653
       868.20000  1.05486e-11      434.813
       868.30000  1.05486e-11      435.868
       868.40000  1.05486e-11      436.923
       868.50000  4.75069e-12      197.249
       868.60000  4.75069e-12      197.676
       868.70000  4.75069e-12      198.151
       868.80000  4.64668e-12      194.185
       868.90000  4.64668e-12      194.603
       869.00000  4.64668e-12      194.975
       869.10000  4.64668e-12      195.347
       869.20000  4.64668e-12      195.718
       869.30000  4.64668e-12      196.090
       869.40000  4.64668e-12      196.415
       869.50000  3.45255e-12      146.181
       869.60000  3.45255e-12      146.388
       869.70000  3.45255e-12      146.595
       869.80000  3.45255e-12      146.803
       869.90000  3.45255e-12      147.010
       870.00000  3.45255e-12      147.217
       870.10000  3.45255e-12      147.389
       870.20000  3.45255e-12      147.562
       870.30000  3.45255e-12      147.700
       870.40000  3.45255e-12      147.838
       870.50000  9.12062e-13      39.0910
       870.60000  9.12062e-13      39.1275
       870.70000  9.12062e-13      39.1548
       870.80000  9.12062e-13      39.1913
       870.90000  9.12062e-13      39.2096
       871.00000  9.12062e-13      39.2369
       871.10000  9.12062e-13      39.2552
       871.20000  9.12062e-13      39.2734
       871.30000  8.92940e-13      38.4679
       871.40000  8.92940e-13      38.4768
       871.50000  6.19169e-12      266.862
       871.60000  6.19169e-12      266.924
       871.70000  6.19169e-12      266.924
       871.80000  6.19169e-12      266.986
       871.90000  6.19169e-12      266.924
       872.00000  6.19169e-12      266.924
       872.10000  6.19169e-12      266.738
       872.20000  6.19169e-12      266.614
       872.30000  6.19169e-12      266.429
       872.40000  6.19169e-12      266.305
       872.50000  2.62819e-12      112.960
       872.60000  2.62819e-12      112.907
       872.70000  2.62819e-12      112.855
       872.80000  2.62819e-12      112.802
       872.90000  2.62819e-12      112.723
       873.00000  2.62819e-12      112.671
       873.10000  2.62819e-12      112.618
       873.20000  2.62819e-12      112.566
       873.30000  2.62819e-12      112.513
       873.40000  2.62819e-12      112.460
       873.50000  4.33785e-13      18.5530
       873.60000  4.33785e-13      18.5443
       873.70000  4.33785e-13      18.5356
       873.80000  4.23940e-13      18.1107
       873.90000  4.23940e-13      18.1023
       874.00000  4.23940e-13      18.0938
       877.00000  7.03082e-12      299.865
       877.10000  7.03082e-12      300.076
       877.20000  7.03082e-12      300.286
       877.30000  7.03082e-12      300.497
       877.40000  7.03082e-12      300.779
       877.50000  1.43193e-11      613.152
       877.60000  1.43193e-11      613.725
       877.70000  1.43193e-11      614.297
       877.80000  1.43193e-11      614.870
       877.90000  1.43193e-11      615.586
       878.00000  1.43193e-11      616.302
       878.10000  1.43193e-11      615.443
       878.20000  1.43193e-11      614.727
       878.30000  1.43193e-11      614.011
       878.40000  1.43193e-11      613.295
       878.50000  4.72448e-12      202.113
       878.60000  4.72448e-12      201.924
       878.70000  4.72448e-12      201.688
       878.80000  4.60921e-12      196.583
       878.90000  4.60921e-12      196.399
       879.00000  4.60921e-12      196.214
       883.00000  3.41628e-12      145.260
       883.10000  3.41628e-12      145.329
       883.20000  3.41628e-12      145.397
       883.30000  3.41628e-12      145.431
       883.40000  3.41628e-12      145.465
       883.50000  7.64929e-12      325.783
       883.60000  7.64929e-12      325.783
       883.70000  7.64929e-12      325.783
       883.80000  7.47162e-12      318.216
       883.90000  7.47162e-12      318.142
       884.00000  7.47162e-12      318.067
       886.00000  1.61518e-11      675.147
       888.00000  1.75584e-11      740.261
       890.00000  1.77537e-11      757.017
       890.10000  1.77537e-11      756.484
       890.20000  1.77537e-11      755.951
       890.30000  1.77537e-11      755.419
       890.40000  1.77537e-11      754.886
       890.50000  2.43240e-11      1033.53
       890.60000  2.43240e-11      1032.80
       890.70000  2.43240e-11      1032.07
       890.80000  2.43240e-11      1031.34
       890.90000  2.43240e-11      1030.61
       891.00000  2.43240e-11      1030.12
       893.00000  7.08801e-12      297.697
       899.00000  8.70556e-12      364.589
       899.10000  8.70556e-12      364.241
       899.20000  8.70556e-12      363.892
       899.30000  8.70556e-12      363.544
       899.40000  8.70556e-12      363.196
       899.50000  5.52848e-11      2304.27
       899.60000  5.52848e-11      2301.51
       899.70000  5.52848e-11      2299.30
       899.80000  5.52848e-11      2296.53
       899.90000  5.52848e-11      2293.77
       900.00000  5.52848e-11      2291.00
       900.10000  5.52848e-11      2284.37
       900.20000  5.52848e-11      2278.84
       900.30000  5.52848e-11      2272.76
       900.40000  5.52848e-11      2267.78
       900.50000  6.37806e-11      2610.54
       900.60000  6.37806e-11      2605.44
       900.70000  6.37806e-11      2600.34
       900.80000  6.37806e-11      2596.51
       900.90000  6.37806e-11      2592.68
       901.00000  6.37806e-11      2588.86
       901.10000  6.37806e-11      2586.30
       901.20000  6.37806e-11      2583.75
       901.30000  6.28748e-11      2544.54
       901.40000  6.28748e-11      2543.28
       901.50000  5.47831e-11      2214.88
       901.60000  5.47831e-11      2214.33
       901.70000  5.47831e-11      2213.78
       901.80000  5.47831e-11      2213.78
       901.90000  5.47831e-11      2214.33
       902.00000  5.47831e-11      2215.43
       902.10000  5.47831e-11      2223.10
       902.20000  5.47831e-11      2230.22
       902.30000  5.47831e-11      2237.34
       902.40000  5.47831e-11      2243.91
       902.50000  5.09121e-11      2091.47
       902.60000  5.09121e-11      2097.07
       902.70000  5.09121e-11      2102.67
       902.80000  5.09121e-11      2107.76
       902.90000  5.09121e-11      2112.85
       903.00000  5.09121e-11      2117.43
       903.10000  5.09121e-11      2122.01
       903.20000  5.09121e-11      2126.09
       903.30000  5.09121e-11      2129.65
       903.40000  5.09121e-11      2133.22
       903.50000  5.19903e-11      2181.51
       903.60000  5.19903e-11      2184.63
       903.70000  5.19903e-11      2187.75
       903.80000  5.12658e-11      2159.32
       903.90000  5.12658e-11      2161.88
       904.00000  5.12658e-11      2163.42
       904.10000  5.12658e-11      2164.96
       904.20000  5.12658e-11      2166.49
       904.30000  5.12658e-11      2167.52
       904.40000  5.12658e-11      2168.03
       904.50000  5.84265e-11      2471.44
       904.60000  5.84265e-11      2472.02
       904.70000  5.84265e-11      2472.02
       904.80000  5.84265e-11      2471.44
       904.90000  5.84265e-11      2470.86
       905.00000  5.84265e-11      2469.69
       905.10000  5.84265e-11      2468.52
       905.20000  5.84265e-11      2466.77
       905.30000  5.84265e-11      2465.01
       905.40000  5.84265e-11      2462.68
       905.50000  5.22840e-11      2201.16
       905.60000  5.22840e-11      2198.54
       905.70000  5.22840e-11      2195.93
       905.80000  5.22840e-11      2192.79
       905.90000  5.22840e-11      2189.13
       906.00000  5.22840e-11      2185.47
       906.10000  5.22840e-11      2183.38
       906.20000  5.22840e-11      2181.81
       906.30000  5.15286e-11      2148.74
       906.40000  5.15286e-11      2146.68
       906.50000  5.73594e-11      2387.87
       906.60000  5.73594e-11      2386.15
       906.70000  5.73594e-11      2384.43
       906.80000  5.73594e-11      2382.71
       906.90000  5.73594e-11      2380.99
       907.00000  5.73594e-11      2379.27
       907.10000  5.73594e-11      2377.55
       907.20000  5.73594e-11      2375.83
       907.30000  5.73594e-11      2374.10
       907.40000  5.73594e-11      2372.38
       907.50000  3.34640e-11      1383.07
       907.60000  3.34640e-11      1382.40
       907.70000  3.34640e-11      1381.40
       907.80000  3.34640e-11      1380.39
       907.90000  3.34640e-11      1379.72
       908.00000  3.34640e-11      1378.72
       908.10000  3.34640e-11      1377.38
       908.20000  3.34640e-11      1376.38
       908.30000  3.34640e-11      1375.04
       908.40000  3.34640e-11      1374.03
       908.50000  4.29621e-11      1762.73
       908.60000  4.29621e-11      1761.44
       908.70000  4.29621e-11      1760.59
       908.80000  4.23137e-11      1732.75
       908.90000  4.23137e-11      1731.90
       909.00000  4.23137e-11      1731.05
       909.10000  4.23137e-11      1730.21
       909.20000  4.23137e-11      1729.36
       909.30000  4.23137e-11      1728.51
       909.40000  4.23137e-11      1728.09
       909.50000  3.36045e-11      1372.07
       909.60000  3.36045e-11      1371.74
       909.70000  3.36045e-11      1371.40
       909.80000  3.36045e-11      1371.06
       909.90000  3.36045e-11      1371.06
       910.00000  3.36045e-11      1370.73
       910.10000  3.36045e-11      1370.73
       910.20000  3.36045e-11      1370.73
       910.30000  3.36045e-11      1371.06
       910.40000  3.36045e-11      1371.06
       910.50000  4.35081e-11      1775.56
       910.60000  4.35081e-11      1775.56
       910.70000  4.35081e-11      1776.00
       910.80000  4.35081e-11      1776.87
       910.90000  4.35081e-11      1777.30
       911.00000  4.35081e-11      1777.74
       911.10000  4.35081e-11      1778.61
       911.20000  4.35081e-11      1779.48
       911.30000  4.28145e-11      1751.97
       911.40000  4.28145e-11      1752.82
       911.50000  3.28006e-11      1343.84
       911.60000  3.28006e-11      1344.50
       911.70000  3.28006e-11      1345.48
       911.80000  3.28006e-11      1346.47
       911.90000  3.28006e-11      1347.45
       912.00000  3.28006e-11      1348.76
       912.10000  3.28006e-11      1350.40
       912.20000  3.28006e-11      1351.71
       912.30000  3.28006e-11      1353.03
       912.40000  3.28006e-11      1354.34
       912.50000  3.10846e-11      1284.73
       912.60000  3.10846e-11      1285.97
       912.70000  3.10846e-11      1287.21
       912.80000  3.10846e-11      1288.15
       912.90000  3.10846e-11      1289.08
       913.00000  3.10846e-11      1290.01
       913.10000  3.10846e-11      1290.94
       913.20000  3.10846e-11      1291.56
       913.30000  3.10846e-11      1292.50
       913.40000  3.10846e-11      1293.12
       913.50000  4.12458e-11      1716.65
       913.60000  4.12458e-11      1717.48
       913.70000  4.12458e-11      1717.89
       913.80000  4.05389e-11      1688.85
       913.90000  4.05389e-11      1689.66
       914.00000  4.05389e-11      1690.07
       914.10000  4.05389e-11      1689.26
       914.20000  4.05389e-11      1688.85
       914.30000  4.05389e-11      1688.45
       914.40000  4.05389e-11      1688.04
       914.50000  4.18129e-11      1740.67
       914.60000  4.18129e-11      1739.84
       914.70000  4.18129e-11      1739.42
       914.80000  4.18129e-11      1739.00
       914.90000  4.18129e-11      1738.58
       915.00000  4.18129e-11      1738.16
       915.10000  4.18129e-11      1737.74
       915.20000  4.18129e-11      1737.33
       915.30000  4.18129e-11      1736.91
       915.40000  4.18129e-11      1736.49
       915.50000  2.82614e-11      1173.41
       915.60000  2.82614e-11      1173.13
       915.70000  2.82614e-11      1172.85
       915.80000  2.82614e-11      1172.57
       915.90000  2.82614e-11      1172.28
       916.00000  2.82614e-11      1172.00
       916.10000  2.82614e-11      1171.72
       916.20000  2.82614e-11      1171.43
       916.30000  2.77361e-11      1149.38
       916.40000  2.77361e-11      1149.11
       916.50000  3.04315e-11      1260.47
       916.60000  3.04315e-11      1260.47
       916.70000  3.04315e-11      1260.17
       916.80000  3.04315e-11      1259.86
       916.90000  3.04315e-11      1259.56
       917.00000  3.04315e-11      1259.26
       917.10000  3.04315e-11      1259.26
       917.20000  3.04315e-11      1258.95
       917.30000  3.04315e-11      1258.65
       917.40000  3.04315e-11      1258.34
       917.50000  3.20043e-11      1323.38
       917.60000  3.20043e-11      1323.06
       917.70000  3.20043e-11      1322.74
       917.80000  3.20043e-11      1322.74
       917.90000  3.20043e-11      1322.42
       918.00000  3.20043e-11      1322.10
       918.10000  3.20043e-11      1322.74
       918.20000  3.20043e-11      1323.38
       918.30000  3.20043e-11      1324.02
       918.40000  3.20043e-11      1324.34
       918.50000  3.19232e-11      1321.30
       918.60000  3.19232e-11      1321.62
       918.70000  3.19232e-11      1321.62
       918.80000  3.13261e-11      1296.90
       918.90000  3.13261e-11      1296.90
       919.00000  3.13261e-11      1296.90
       919.10000  3.13261e-11      1296.59
       919.20000  3.13261e-11      1296.27
       919.30000  3.13261e-11      1295.96
       919.40000  3.13261e-11      1295.33
       919.50000  1.92914e-11      797.312
       919.60000  1.92914e-11      796.926
       919.70000  1.92914e-11      796.540
       919.80000  1.92914e-11      795.962
       919.90000  1.92914e-11      795.576
       920.00000  1.92914e-11      794.997
       920.10000  1.92914e-11      793.261
       920.20000  1.92914e-11      791.717
       920.30000  1.92914e-11      790.174
       920.40000  1.92914e-11      788.631
       920.50000  3.13279e-11      1278.18
       920.60000  3.13279e-11      1275.99
       920.70000  3.13279e-11      1273.79
       920.80000  3.13279e-11      1271.91
       920.90000  3.13279e-11      1269.72
       921.00000  3.13279e-11      1267.84
       921.10000  3.13279e-11      1265.96
       921.20000  3.13279e-11      1264.40
       921.30000  3.07263e-11      1238.27
       921.40000  3.07263e-11      1236.73
       921.50000  2.71049e-11      1089.62
       921.60000  2.71049e-11      1088.53
       921.70000  2.71049e-11      1087.45
       921.80000  2.71049e-11      1086.37
       921.90000  2.71049e-11      1085.28
       922.00000  2.71049e-11      1084.47
       922.10000  2.71049e-11      1083.38
       922.20000  2.71049e-11      1082.84
       922.30000  2.71049e-11      1082.03
       922.40000  2.71049e-11      1081.49
       922.50000  3.37394e-11      1345.19
       922.60000  3.37394e-11      1344.85
       922.70000  3.37394e-11      1344.18
       922.80000  3.37394e-11      1343.84
       922.90000  3.37394e-11      1343.50
       923.00000  3.37394e-11      1343.17
       923.10000  3.37394e-11      1343.17
       923.20000  3.37394e-11      1342.83
       923.30000  3.37394e-11      1342.83
       923.40000  3.37394e-11      1343.17
       923.50000  3.29858e-11      1313.16
       923.60000  3.29858e-11      1313.49
       923.70000  3.29858e-11      1313.82
       923.80000  3.23439e-11      1288.90
       923.90000  3.23439e-11      1289.23
       924.00000  3.23439e-11      1289.88
       924.10000  3.23439e-11      1289.88
       924.20000  3.23439e-11      1289.88
       924.30000  3.23439e-11      1289.88
       924.40000  3.23439e-11      1289.88
       924.50000  2.52886e-11      1008.51
       924.60000  2.52886e-11      1008.51
       924.70000  2.52886e-11      1008.76
       924.80000  2.52886e-11      1009.02
       924.90000  2.52886e-11      1009.02
       925.00000  2.52886e-11      1009.27
       925.10000  2.52886e-11      1009.77
       925.20000  2.52886e-11      1010.03
       925.30000  2.52886e-11      1010.28
       925.40000  2.52886e-11      1010.79
       925.50000  2.13584e-11      854.122
       925.60000  2.13584e-11      854.549
       925.70000  2.13584e-11      854.977
       925.80000  2.13584e-11      855.404
       925.90000  2.13584e-11      855.831
       926.00000  2.13584e-11      856.472
       926.10000  2.13584e-11      857.753
       926.20000  2.13584e-11      859.248
       926.30000  2.09422e-11      843.760
       926.40000  2.09422e-11      845.016
       926.50000  2.38611e-11      964.228
       926.60000  2.38611e-11      965.421
       926.70000  2.38611e-11      966.614
       926.80000  2.38611e-11      967.807
       926.90000  2.38611e-11      969.000
       927.00000  2.38611e-11      969.954
       927.10000  2.38611e-11      970.909
       927.20000  2.38611e-11      971.863
       927.30000  2.38611e-11      972.579
       927.40000  2.38611e-11      973.295
       927.50000  2.67777e-11      1093.06
       927.60000  2.67777e-11      1093.60
       927.70000  2.67777e-11      1094.40
       927.80000  2.67777e-11      1094.94
       927.90000  2.67777e-11      1095.21
       928.00000  2.67777e-11      1095.47
       928.10000  2.67777e-11      1094.94
       928.20000  2.67777e-11      1094.40
       928.30000  2.67777e-11      1093.60
       928.40000  2.67777e-11      1093.06
       928.50000  2.21666e-11      904.399
       928.60000  2.21666e-11      903.956
       928.70000  2.21666e-11      903.513
       928.80000  2.17378e-11      885.600
       928.90000  2.17378e-11      885.165
       929.00000  2.17378e-11      884.947
       929.10000  2.17378e-11      884.513
       929.20000  2.17378e-11      884.078
       929.30000  2.17378e-11      883.861
       929.40000  2.17378e-11      883.426
       929.50000  3.00096e-11      1219.29
       929.60000  3.00096e-11      1218.99
       929.70000  3.00096e-11      1218.39
       929.80000  3.00096e-11      1218.09
       929.90000  3.00096e-11      1217.79
       930.00000  3.00096e-11      1217.49
       930.10000  3.00096e-11      1217.49
       930.20000  3.00096e-11      1217.49
       930.30000  3.00096e-11      1217.19
       930.40000  3.00096e-11      1217.19
       930.50000  2.27242e-11      921.694
       930.60000  2.27242e-11      921.694
       930.70000  2.27242e-11      921.467
       930.80000  2.27242e-11      921.467
       930.90000  2.27242e-11      921.467
       931.00000  2.27242e-11      921.467
       931.10000  2.27242e-11      921.467
       931.20000  2.27242e-11      921.239
       931.30000  2.23086e-11      904.390
       931.40000  2.23086e-11      904.390
       931.50000  2.17937e-11      883.517
       931.60000  2.17937e-11      883.517
       931.70000  2.17937e-11      883.517
       931.80000  2.17937e-11      883.517
       931.90000  2.17937e-11      883.517
       932.00000  2.17937e-11      883.517
       932.10000  2.17937e-11      883.517
       932.20000  2.17937e-11      883.517
       932.30000  2.17937e-11      883.517
       932.40000  2.17937e-11      883.517
       932.50000  2.00115e-11      811.265
       932.60000  2.00115e-11      811.265
       932.70000  2.00115e-11      811.265
       932.80000  2.00115e-11      811.465
       932.90000  2.00115e-11      811.465
       933.00000  2.00115e-11      811.465
       933.10000  2.00115e-11      811.465
       933.20000  2.00115e-11      811.465
       933.30000  2.00115e-11      811.665
       933.40000  2.00115e-11      811.665
       933.50000  2.05027e-11      831.588
       933.60000  2.05027e-11      831.793
       933.70000  2.05027e-11      831.793
       933.80000  2.01550e-11      817.690
       933.90000  2.01550e-11      817.891
       934.00000  2.01550e-11      817.891
       934.10000  2.01550e-11      817.287
       934.20000  2.01550e-11      816.682
       934.30000  2.01550e-11      816.078
       934.40000  2.01550e-11      815.473
       934.50000  2.37274e-11      959.297
       934.60000  2.37274e-11      958.823
       934.70000  2.37274e-11      958.348
       934.80000  2.37274e-11      957.636
       934.90000  2.37274e-11      957.162
       935.00000  2.37274e-11      956.925
       935.10000  2.37274e-11      956.450
       935.20000  2.37274e-11      955.976
       935.30000  2.37274e-11      955.738
       935.40000  2.37274e-11      955.501
       935.50000  2.39240e-11      963.180
       935.60000  2.39240e-11      962.941
       935.70000  2.39240e-11      962.702
       935.80000  2.39240e-11      962.462
       935.90000  2.39240e-11      962.462
       936.00000  2.39240e-11      962.223
       936.10000  2.39240e-11      962.941
       936.20000  2.39240e-11      963.659
       936.30000  2.35306e-11      948.518
       936.40000  2.35306e-11      949.224
       936.50000  2.03481e-11      821.249
       936.60000  2.03481e-11      821.656
       936.70000  2.03481e-11      822.063
       936.80000  2.03481e-11      822.470
       936.90000  2.03481e-11      822.673
       937.00000  2.03481e-11      823.080
       937.10000  2.03481e-11      823.284
       937.20000  2.03481e-11      823.487
       937.30000  2.03481e-11      823.487
       937.40000  2.03481e-11      823.691
       937.50000  1.76312e-11      713.712
       937.60000  1.76312e-11      713.712
       937.70000  1.76312e-11      713.712
       937.80000  1.76312e-11      713.712
       937.90000  1.76312e-11      713.536
       938.00000  1.76312e-11      713.536
       938.10000  1.76312e-11      713.359
       938.20000  1.76312e-11      713.007
       938.30000  1.76312e-11      712.830
       938.40000  1.76312e-11      712.478
       938.50000  2.37059e-11      957.718
       938.60000  2.37059e-11      957.244
       938.70000  2.37059e-11      956.532
       938.80000  2.33363e-11      941.155
       938.90000  2.33363e-11      940.455
       939.00000  2.33363e-11      939.988
       939.10000  2.33363e-11      939.288
       939.20000  2.33363e-11      938.354
       939.30000  2.33363e-11      937.654
       939.40000  2.33363e-11      936.721
       939.50000  1.85445e-11      743.635
       939.60000  1.85445e-11      742.893
       939.70000  1.85445e-11      742.151
       939.80000  1.85445e-11      741.409
       939.90000  1.85445e-11      740.482
       940.00000  1.85445e-11      739.555
       940.10000  1.85445e-11      738.257
       940.20000  1.85445e-11      736.959
       940.30000  1.85445e-11      735.846
       940.40000  1.85445e-11      734.733
       940.50000  1.55060e-11      613.417
       940.60000  1.55060e-11      612.642
       940.70000  1.55060e-11      611.866
       940.80000  1.55060e-11      611.091
       940.90000  1.55060e-11      610.316
       941.00000  1.55060e-11      609.695
       941.10000  1.55060e-11      609.075
       941.20000  1.55060e-11      608.610
       941.30000  1.52749e-11      599.081
       941.40000  1.52749e-11      598.623
       941.50000  1.77097e-11      693.511
       941.60000  1.77097e-11      693.157
       941.70000  1.77097e-11      692.803
       941.80000  1.77097e-11      692.448
       941.90000  1.77097e-11      692.094
       942.00000  1.77097e-11      691.917
       942.10000  1.77097e-11      692.448
       942.20000  1.77097e-11      692.803
       942.30000  1.77097e-11      693.334
       942.40000  1.77097e-11      693.688
       942.50000  2.24052e-11      878.060
       942.60000  2.24052e-11      878.732
       942.70000  2.24052e-11      879.180
       942.80000  2.24052e-11      879.628
       942.90000  2.24052e-11      880.076
       943.00000  2.24052e-11      880.524
       943.10000  2.24052e-11      881.196
       943.20000  2.24052e-11      881.644
       943.30000  2.24052e-11      882.093
       943.40000  2.24052e-11      882.541
       943.50000  1.56326e-11      616.081
       943.60000  1.56326e-11      616.394
       943.70000  1.56326e-11      616.707
       943.80000  1.53942e-11      607.609
       943.90000  1.53942e-11      607.917
       944.00000  1.53942e-11      608.225
       944.10000  1.53942e-11      608.533
       944.20000  1.53942e-11      608.840
       944.30000  1.53942e-11      608.994
       944.40000  1.53942e-11      609.302
       944.50000  1.68331e-11      666.589
       944.60000  1.68331e-11      666.925
       944.70000  1.68331e-11      667.094
       944.80000  1.68331e-11      667.430
       944.90000  1.68331e-11      667.767
       945.00000  1.68331e-11      667.935
       945.10000  1.68331e-11      668.272
       945.20000  1.68331e-11      668.609
       945.30000  1.68331e-11      668.777
       945.40000  1.68331e-11      669.114
       945.50000  1.41426e-11      562.309
       945.60000  1.41426e-11      562.592
       945.70000  1.41426e-11      562.734
       945.80000  1.41426e-11      563.016
       945.90000  1.41426e-11      563.158
       946.00000  1.41426e-11      563.299
       946.10000  1.41426e-11      563.582
       946.20000  1.41426e-11      563.865
       946.30000  1.39304e-11      555.682
       946.40000  1.39304e-11      555.960
       946.50000  1.12053e-11      447.426
       946.60000  1.12053e-11      447.538
       946.70000  1.12053e-11      447.762
       946.80000  1.12053e-11      447.874
       946.90000  1.12053e-11      447.986
       947.00000  1.12053e-11      448.210
       947.10000  1.12053e-11      448.322
       947.20000  1.12053e-11      448.434
       947.30000  1.12053e-11      448.547
       947.40000  1.12053e-11      448.659
       947.50000  2.60137e-11      1041.59
       947.60000  2.60137e-11      1041.85
       947.70000  2.60137e-11      1042.11
       947.80000  2.60137e-11      1042.11
       947.90000  2.60137e-11      1042.37
       948.00000  2.60137e-11      1042.37
       948.10000  2.60137e-11      1042.37
       948.20000  2.60137e-11      1042.37
       948.30000  2.60137e-11      1042.11
       948.40000  2.60137e-11      1042.11
       948.50000  1.67861e-11      672.285
       948.60000  1.67861e-11      672.285
       948.70000  1.67861e-11      672.285
       948.80000  1.65166e-11      661.324
       948.90000  1.65166e-11      661.324
       949.00000  1.65166e-11      661.159
       949.10000  1.65166e-11      661.159
       949.20000  1.65166e-11      660.994
       949.30000  1.65166e-11      660.994
       949.40000  1.65166e-11      660.828
       949.50000  1.77259e-11      709.215
       949.60000  1.77259e-11      709.037
       949.70000  1.77259e-11      708.860
       949.80000  1.77259e-11      708.860
       949.90000  1.77259e-11      708.683
       950.00000  1.77259e-11      708.506
       950.10000  1.77259e-11      708.506
       950.20000  1.77259e-11      708.328
       950.30000  1.77259e-11      708.151
       950.40000  1.77259e-11      708.151
       950.50000  1.46621e-11      585.604
       950.60000  1.46621e-11      585.457
       950.70000  1.46621e-11      585.311
       950.80000  1.46621e-11      585.311
       950.90000  1.46621e-11      585.164
       951.00000  1.46621e-11      585.017
       951.10000  1.46621e-11      584.871
       951.20000  1.46621e-11      584.724
       951.30000  1.44275e-11      575.370
       951.40000  1.44275e-11      575.225
       951.50000  8.38962e-12      334.410
       951.60000  8.38962e-12      334.326
       951.70000  8.38962e-12      334.243
       951.80000  8.38962e-12      334.159
       951.90000  8.38962e-12      334.075
       952.00000  8.38962e-12      333.991
       952.10000  8.38962e-12      333.320
       952.20000  8.38962e-12      332.648
       952.30000  8.38962e-12      332.061
       952.40000  8.38962e-12      331.474
       952.50000  1.84289e-11      726.836
       952.60000  1.84289e-11      725.546
       952.70000  1.84289e-11      724.440
       952.80000  1.84289e-11      723.334
       952.90000  1.84289e-11      722.229
       953.00000  1.84289e-11      721.307
       953.10000  1.84289e-11      720.386
       953.20000  1.84289e-11      719.464
       953.30000  1.84289e-11      718.727
       953.40000  1.84289e-11      717.806
       953.50000  1.65490e-11      643.920
       953.60000  1.65490e-11      643.424
       953.70000  1.65490e-11      642.762
       953.80000  1.62742e-11      631.601
       953.90000  1.62742e-11      631.113
       954.00000  1.62742e-11      630.787
       954.10000  1.62742e-11      630.625
       954.20000  1.62742e-11      630.462
       954.30000  1.62742e-11      630.462
       954.40000  1.62742e-11      630.462
       954.50000  1.20210e-11      465.574
       954.60000  1.20210e-11      465.574
       954.70000  1.20210e-11      465.574
       954.80000  1.20210e-11      465.574
       954.90000  1.20210e-11      465.695
       955.00000  1.20210e-11      465.695
       955.10000  1.20210e-11      465.815
       955.20000  1.20210e-11      465.815
       955.30000  1.20210e-11      465.935
       955.40000  1.20210e-11      466.055
       955.50000  9.30660e-12      360.910
       955.60000  9.30660e-12      361.003
       955.70000  9.30660e-12      361.096
       955.80000  9.30660e-12      361.282
       955.90000  9.30660e-12      361.375
       956.00000  9.30660e-12      361.561
       956.10000  9.30660e-12      361.747
       956.20000  9.30660e-12      361.840
       956.30000  9.15467e-12      356.117
       956.40000  9.15467e-12      356.391
       956.50000  1.14032e-11      444.156
       956.60000  1.14032e-11      444.384
       956.70000  1.14032e-11      444.726
       956.80000  1.14032e-11      444.954
       956.90000  1.14032e-11      445.296
       957.00000  1.14032e-11      445.638
       957.10000  1.14032e-11      445.980
       957.20000  1.14032e-11      446.322
       957.30000  1.14032e-11      446.779
       957.40000  1.14032e-11      447.121
       957.50000  1.12765e-11      442.489
       957.60000  1.12765e-11      442.940
       957.70000  1.12765e-11      443.391
       957.80000  1.12765e-11      443.842
       957.90000  1.12765e-11      444.293
       958.00000  1.12765e-11      444.744
       958.10000  1.12765e-11      444.744
       958.20000  1.12765e-11      444.631
       958.30000  1.12765e-11      444.631
       958.40000  1.12765e-11      444.631
       958.50000  1.02159e-11      402.814
       958.60000  1.02159e-11      402.712
       958.70000  1.02159e-11      402.712
       958.80000  1.00358e-11      395.613
       958.90000  1.00358e-11      395.513
       959.00000  1.00358e-11      395.513
       959.10000  1.00358e-11      395.412
       959.20000  1.00358e-11      395.412
       959.30000  1.00358e-11      395.312
       959.40000  1.00358e-11      395.212
       959.50000  8.70673e-12      342.871
       959.60000  8.70673e-12      342.784
       959.70000  8.70673e-12      342.784
       959.80000  8.70673e-12      342.697
       959.90000  8.70673e-12      342.610
       960.00000  8.70673e-12      342.523
       960.10000  8.70673e-12      342.436
       960.20000  8.70673e-12      342.349
       960.30000  8.70673e-12      342.261
       960.40000  8.70673e-12      342.174
       960.50000  1.34407e-11      528.085
       960.60000  1.34407e-11      527.951
       960.70000  1.34407e-11      527.817
       960.80000  1.34407e-11      527.682
       960.90000  1.34407e-11      527.548
       961.00000  1.34407e-11      527.413
       961.10000  1.34407e-11      527.279
       961.20000  1.34407e-11      527.145
       961.30000  1.32072e-11      517.854
       961.40000  1.32072e-11      517.722
       961.50000  1.30006e-11      509.492
       961.60000  1.30006e-11      509.232
       961.70000  1.30006e-11      509.102
       961.80000  1.30006e-11      508.972
       961.90000  1.30006e-11      508.842
       962.00000  1.30006e-11      508.712
       962.10000  1.30006e-11      508.452
       962.20000  1.30006e-11      508.322
       962.30000  1.30006e-11      508.192
       962.40000  1.30006e-11      507.932
       962.50000  1.20214e-11      469.554
       962.60000  1.20214e-11      469.434
       962.70000  1.20214e-11      469.194
       962.80000  1.20214e-11      469.073
       962.90000  1.20214e-11      468.833
       963.00000  1.20214e-11      468.713
       963.10000  1.20214e-11      468.593
       963.20000  1.20214e-11      468.352
       963.30000  1.20214e-11      468.232
       963.40000  1.20214e-11      467.992
       963.50000  1.28409e-11      499.769
       963.60000  1.28409e-11      499.513
       963.70000  1.28409e-11      499.384
       963.80000  1.26077e-11      490.063
       963.90000  1.26077e-11      489.811
       964.00000  1.26077e-11      489.685
       964.10000  1.26077e-11      489.433
       964.20000  1.26077e-11      489.055
       964.30000  1.26077e-11      488.802
       964.40000  1.26077e-11      488.676
       964.50000  1.42879e-11      553.513
       964.60000  1.42879e-11      553.227
       964.70000  1.42879e-11      553.084
       964.80000  1.42879e-11      552.799
       964.90000  1.42879e-11      552.656
       965.00000  1.42879e-11      552.370
       965.10000  1.42879e-11      552.227
       965.20000  1.42879e-11      552.084
       965.30000  1.42879e-11      551.941
       965.40000  1.42879e-11      551.941
       965.50000  1.12660e-11      435.094
       965.60000  1.12660e-11      434.982
       965.70000  1.12660e-11      434.982
       965.80000  1.12660e-11      434.869
       965.90000  1.12660e-11      434.869
       966.00000  1.12660e-11      434.869
       966.10000  1.12660e-11      434.982
       966.20000  1.12660e-11      435.094
       966.30000  1.10577e-11      427.269
       966.40000  1.10577e-11      427.380
       966.50000  1.19642e-11      462.537
       966.60000  1.19642e-11      462.656
       966.70000  1.19642e-11      462.776
       966.80000  1.19642e-11      462.896
       966.90000  1.19642e-11      463.015
       967.00000  1.19642e-11      463.135
       967.10000  1.19642e-11      463.254
       967.20000  1.19642e-11      463.374
       967.30000  1.19642e-11      463.494
       967.40000  1.19642e-11      463.613
       967.50000  9.90049e-12      383.644
       967.60000  9.90049e-12      383.743
       967.70000  9.90049e-12      383.842
       967.80000  9.90049e-12      383.842
       967.90000  9.90049e-12      383.941
       968.00000  9.90049e-12      384.040
       968.10000  9.90049e-12      384.040
       968.20000  9.90049e-12      384.139
       968.30000  9.90049e-12      384.139
       968.40000  9.90049e-12      384.139
       968.50000  8.19055e-12      317.875
       968.60000  8.19055e-12      317.875
       968.70000  8.19055e-12      317.875
       968.80000  8.03878e-12      312.066
       968.90000  8.03878e-12      312.066
       969.00000  8.03878e-12      312.066
       969.10000  8.03878e-12      312.066
       969.20000  8.03878e-12      312.066
       969.30000  8.03878e-12      312.066
       969.40000  8.03878e-12      312.066
       969.50000  9.62271e-12      373.554
       969.60000  9.62271e-12      373.554
       969.70000  9.62271e-12      373.554
       969.80000  9.62271e-12      373.554
       969.90000  9.62271e-12      373.554
       970.00000  9.62271e-12      373.554
       970.10000  9.62271e-12      373.650
       970.20000  9.62271e-12      373.746
       970.30000  9.62271e-12      373.746
       970.40000  9.62271e-12      373.842
       970.50000  1.00534e-11      390.573
       970.60000  1.00534e-11      390.673
       970.70000  1.00534e-11      390.673
       970.80000  1.00534e-11      390.673
       970.90000  1.00534e-11      390.673
       971.00000  1.00534e-11      390.673
       971.10000  1.00534e-11      390.673
       971.20000  1.00534e-11      390.573
       971.30000  9.86749e-12      383.352
       971.40000  9.86749e-12      383.253
       971.50000  1.09105e-11      423.765
       971.60000  1.09105e-11      423.656
       971.70000  1.09105e-11      423.547
       971.80000  1.09105e-11      423.438
       971.90000  1.09105e-11      423.329
       972.00000  1.09105e-11      423.110
       972.10000  1.09105e-11      422.674
       972.20000  1.09105e-11      422.238
       972.30000  1.09105e-11      421.910
       972.40000  1.09105e-11      421.474
       972.50000  8.24186e-12      318.136
       972.60000  8.24186e-12      317.806
       972.70000  8.24186e-12      317.559
       972.80000  8.24186e-12      317.312
       972.90000  8.24186e-12      317.065
       973.00000  8.24186e-12      316.900
       973.10000  8.24186e-12      316.652
       973.20000  8.24186e-12      316.488
       973.30000  8.24186e-12      316.323
       973.40000  8.24186e-12      316.158
       973.50000  9.43119e-12      361.592
       973.60000  9.43119e-12      361.403
       973.70000  9.43119e-12      361.309
       973.80000  9.24748e-12      354.086
       973.90000  9.24748e-12      353.993
       974.00000  9.24748e-12      353.901
       974.10000  9.24748e-12      353.993
       974.20000  9.24748e-12      354.178
       974.30000  9.24748e-12      354.271
       974.40000  9.24748e-12      354.363
       974.50000  1.05238e-11      403.377
       974.60000  1.05238e-11      403.482
       974.70000  1.05238e-11      403.587
       974.80000  1.05238e-11      403.693
       974.90000  1.05238e-11      403.693
       975.00000  1.05238e-11      403.798
       975.10000  1.05238e-11      403.903
       975.20000  1.05238e-11      403.903
       975.30000  1.05238e-11      404.008
       975.40000  1.05238e-11      404.008
       975.50000  9.83662e-12      377.628
       975.60000  9.83662e-12      377.726
       975.70000  9.83662e-12      377.726
       975.80000  9.83662e-12      377.726
       975.90000  9.83662e-12      377.726
       976.00000  9.83662e-12      377.726
       976.10000  9.83662e-12      377.628
       976.20000  9.83662e-12      377.530
       976.30000  9.64852e-12      370.214
       976.40000  9.64852e-12      370.117
       976.50000  7.87582e-12      302.117
       976.60000  7.87582e-12      302.038
       976.70000  7.87582e-12      301.959
       976.80000  7.87582e-12      301.880
       976.90000  7.87582e-12      301.880
       977.00000  7.87582e-12      301.802
       977.10000  7.87582e-12      301.723
       977.20000  7.87582e-12      301.644
       977.30000  7.87582e-12      301.644
       977.40000  7.87582e-12      301.565
       977.50000  1.14948e-11      440.022
       977.60000  1.14948e-11      440.022
       977.70000  1.14948e-11      439.907
       977.80000  1.14948e-11      439.792
       977.90000  1.14948e-11      439.792
       978.00000  1.14948e-11      439.677
       978.10000  1.14948e-11      439.677
       978.20000  1.14948e-11      439.562
       978.30000  1.14948e-11      439.562
       978.40000  1.14948e-11      439.447
       978.50000  8.01015e-12      306.148
       978.60000  8.01015e-12      306.148
       978.70000  8.01015e-12      306.148
       978.80000  7.85423e-12      300.110
       978.90000  7.85423e-12      300.110
       979.00000  7.85423e-12      300.032
       979.10000  7.85423e-12      300.032
       979.20000  7.85423e-12      299.953
       979.30000  7.85423e-12      299.953
       979.40000  7.85423e-12      299.953
       979.50000  5.37058e-12      205.049
       979.60000  5.37058e-12      205.049
       979.70000  5.37058e-12      205.049
       979.80000  5.37058e-12      204.995
       979.90000  5.37058e-12      204.995
       980.00000  5.37058e-12      204.995
       980.10000  5.37058e-12      205.102
       980.20000  5.37058e-12      205.156
       980.30000  5.37058e-12      205.264
       980.40000  5.37058e-12      205.317
       980.50000  6.94107e-12      265.496
       980.60000  6.94107e-12      265.565
       980.70000  6.94107e-12      265.635
       980.80000  6.94107e-12      265.704
       980.90000  6.94107e-12      265.774
       981.00000  6.94107e-12      265.843
       981.10000  6.94107e-12      265.913
       981.20000  6.94107e-12      265.982
       981.30000  6.80062e-12      260.600
       981.40000  6.80062e-12      260.668
       981.50000  7.12712e-12      273.182
       981.60000  7.12712e-12      273.182
       981.70000  7.12712e-12      273.254
       981.80000  7.12712e-12      273.254
       981.90000  7.12712e-12      273.254
       982.00000  7.12712e-12      273.182
       982.10000  7.12712e-12      273.111
       982.20000  7.12712e-12      272.969
       982.30000  7.12712e-12      272.897
       982.40000  7.12712e-12      272.755
       982.50000  9.83184e-12      376.166
       982.60000  9.83184e-12      375.970
       982.70000  9.83184e-12      375.871
       982.80000  9.83184e-12      375.773
       982.90000  9.83184e-12      375.576
       983.00000  9.83184e-12      375.478
       983.10000  9.83184e-12      375.380
       983.20000  9.83184e-12      375.281
       983.30000  9.83184e-12      375.183
       983.40000  9.83184e-12      374.986
       983.50000  3.30783e-11      1261.27
       983.60000  3.30783e-11      1260.94
       983.70000  3.30783e-11      1260.61
       983.80000  3.24259e-11      1235.43
       983.90000  3.24259e-11      1235.10
       984.00000  3.24259e-11      1234.78
       984.10000  3.24259e-11      1234.78
       984.20000  3.24259e-11      1234.45
       984.30000  3.24259e-11      1234.13
       984.40000  3.24259e-11      1233.80
       984.50000  6.60364e-11      2512.69
       984.60000  6.60364e-11      2512.03
       984.70000  6.60364e-11      2511.37
       984.80000  6.60364e-11      2511.37
       984.90000  6.60364e-11      2510.71
       985.00000  6.60364e-11      2510.04
       985.10000  6.60364e-11      2510.04
       985.20000  6.60364e-11      2509.38
       985.30000  6.60364e-11      2509.38
       985.40000  6.60364e-11      2509.38
       985.50000  9.17077e-11      3483.97
       985.60000  9.17077e-11      3483.97
       985.70000  9.17077e-11      3483.97
       985.80000  9.17077e-11      3483.06
       985.90000  9.17077e-11      3483.06
       986.00000  9.17077e-11      3483.06
       986.10000  9.17077e-11      3482.14
       986.20000  9.17077e-11      3482.14
       986.30000  8.99002e-11      3413.51
       986.40000  8.99002e-11      3412.61
       986.50000  9.31687e-11      3535.75
       986.60000  9.31687e-11      3535.75
       986.70000  9.31687e-11      3534.82
       986.80000  9.31687e-11      3534.82
       986.90000  9.31687e-11      3533.89
       987.00000  9.31687e-11      3532.96
       987.10000  9.31687e-11      3532.02
       987.20000  9.31687e-11      3532.02
       987.30000  9.31687e-11      3531.09
       987.40000  9.31687e-11      3530.16
       987.50000  1.20489e-10      4564.13
       987.60000  1.20489e-10      4562.93
       987.70000  1.20489e-10      4561.72
       987.80000  1.20489e-10      4560.52
       987.90000  1.20489e-10      4559.31
       988.00000  1.20489e-10      4558.11
       988.10000  1.20489e-10      4554.49
       988.20000  1.20489e-10      4552.08
       988.30000  1.20489e-10      4548.47
       988.40000  1.20489e-10      4546.06
       988.50000  2.60278e-10      9815.09
       988.60000  2.60278e-10      9809.89
       988.70000  2.60278e-10      9804.68
       988.80000  2.55207e-10      9608.54
       988.90000  2.55207e-10      9603.43
       989.00000  2.55207e-10      9600.88
       989.10000  2.55207e-10      9598.33
       989.20000  2.55207e-10      9593.23
       989.30000  2.55207e-10      9590.67
       989.40000  2.55207e-10      9588.12
       989.50000  2.99859e-10      11262.7
       989.60000  2.99859e-10      11259.7
       989.70000  2.99859e-10      11259.7
       989.80000  2.99859e-10      11256.7
       989.90000  2.99859e-10      11256.7
       990.00000  2.99859e-10      11256.7
       990.10000  2.99859e-10      11253.7
       990.20000  2.99859e-10      11253.7
       990.30000  2.99859e-10      11256.7
       990.40000  2.99859e-10      11256.7
       990.50000  3.18988e-10      11974.8
       990.60000  3.18988e-10      11978.0
       990.70000  3.18988e-10      11978.0
       990.80000  3.18988e-10      11981.2
       990.90000  3.18988e-10      11984.4
       991.00000  3.18988e-10      11987.6
       991.10000  3.18988e-10      11990.8
       991.20000  3.18988e-10      11993.9
       991.30000  3.13077e-10      11774.8
       991.40000  3.13077e-10      11781.1
       991.50000  4.77537e-10      17974.5
       991.60000  4.77537e-10      17984.0
       991.70000  4.77537e-10      17993.6
       991.80000  4.77537e-10      18003.1
       991.90000  4.77537e-10      18012.7
       992.00000  4.77537e-10      18022.2
       992.10000  4.77537e-10      18027.0
       992.20000  4.77537e-10      18027.0
       992.30000  4.77537e-10      18027.0
       992.40000  4.77537e-10      18027.0
       992.50000  2.60882e-10      9850.91
       992.60000  2.60882e-10      9850.91
       992.70000  2.60882e-10      9850.91
       992.80000  2.60882e-10      9850.91
       992.90000  2.60882e-10      9850.91
       993.00000  2.60882e-10      9853.52
       993.10000  2.60882e-10      9853.52
       993.20000  2.60882e-10      9853.52
       993.30000  2.60882e-10      9853.52
       993.40000  2.60882e-10      9853.52
       993.50000  6.00684e-10      22687.8
       993.60000  6.00684e-10      22687.8
       993.70000  6.00684e-10      22687.8
       993.80000  5.90317e-10      22296.3
       993.90000  5.90317e-10      22290.4
       994.00000  5.90317e-10      22290.4
       994.10000  5.90317e-10      22290.4
       994.20000  5.90317e-10      22284.5
       994.30000  5.90317e-10      22284.5
       994.40000  5.90317e-10      22278.6
       994.50000  9.08767e-10      34296.9
       994.60000  9.08767e-10      34287.8
       994.70000  9.08767e-10      34287.8
       994.80000  9.08767e-10      34278.7
       994.90000  9.08767e-10      34278.7
       995.00000  9.08767e-10      34269.6
       995.10000  9.08767e-10      34269.6
       995.20000  9.08767e-10      34269.6
       995.30000  9.08767e-10      34260.5
       995.40000  9.08767e-10      34260.5
       995.50000  8.26543e-10      31160.7
       995.60000  8.26543e-10      31152.4
       995.70000  8.26543e-10      31152.4
       995.80000  8.26543e-10      31152.4
       995.90000  8.26543e-10      31152.4
       996.00000  8.26543e-10      31144.1
       996.10000  8.26543e-10      31152.4
       996.20000  8.26543e-10      31152.4
       996.30000  8.12689e-10      30630.3
       996.40000  8.12689e-10      30630.3
       996.50000  1.06163e-09      40012.9
       996.60000  1.06163e-09      40012.9
       996.70000  1.06163e-09      40012.9
       996.80000  1.06163e-09      40012.9
       996.90000  1.06163e-09      40012.9
       997.00000  1.06163e-09      40012.9
       997.10000  1.06163e-09      40012.9
       997.20000  1.06163e-09      40012.9
       997.30000  1.06163e-09      40012.9
       997.40000  1.06163e-09      40012.9
       997.50000  8.87509e-10      33450.2
       997.60000  8.87509e-10      33450.2
       997.70000  8.87509e-10      33450.2
       997.80000  8.87509e-10      33450.2
       997.90000  8.87509e-10      33450.2
       998.00000  8.87509e-10      33441.4
       998.10000  8.87509e-10      33441.4
       998.20000  8.87509e-10      33432.5
       998.30000  8.87509e-10      33432.5
       998.40000  8.87509e-10      33423.6
       998.50000  6.92359e-10      26067.3
       998.60000  6.92359e-10      26067.3
       998.70000  6.92359e-10      26060.4
       998.80000  6.81806e-10      25663.2
       998.90000  6.81806e-10      25663.2
       999.00000  6.81806e-10      25656.4
       999.10000  6.81806e-10      25656.4
       999.20000  6.81806e-10      25649.5
       999.30000  6.81806e-10      25649.5
       999.40000  6.81806e-10      25649.5
       999.50000  8.35759e-10      31432.9
       999.60000  8.35759e-10      31432.9
       999.70000  8.35759e-10      31432.9
       999.80000  8.35759e-10      31432.9
       999.90000  8.35759e-10      31432.9
       1000.0000  8.35759e-10      31424.5
       1000.1000  8.35759e-10      31424.5
       1000.2000  8.35759e-10      31424.5
       1000.3000  8.35759e-10      31424.5
       1000.4000  8.35759e-10      31424.5
       1000.5000  7.76924e-10      29212.3
       1000.6000  7.76924e-10      29212.3
       1000.7000  7.76924e-10      29212.3
       1000.8000  7.76924e-10      29212.3
       1000.9000  7.76924e-10      29212.3
       1001.0000  7.76924e-10      29212.3
       1001.1000  7.76924e-10      29212.3
       1001.2000  7.76924e-10      29220.1
       1001.3000  7.65456e-10      28788.8
       1001.4000  7.65456e-10      28788.8
       1001.5000  1.07099e-09      40279.8
       1001.6000  1.07099e-09      40279.8
       1001.7000  1.07099e-09      40290.5
       1001.8000  1.07099e-09      40290.5
       1001.9000  1.07099e-09      40290.5
       1002.0000  1.07099e-09      40301.2
       1002.1000  1.07099e-09      40236.9
       1002.2000  1.07099e-09      40172.7
       1002.3000  1.07099e-09      40119.1
       1002.4000  1.07099e-09      40054.9
       1002.5000  1.18251e-09      44166.7
       1002.6000  1.18251e-09      44095.7
       1002.7000  1.18251e-09      44036.6
       1002.8000  1.18251e-09      43977.5
       1002.9000  1.18251e-09      43918.3
       1003.0000  1.18251e-09      43859.2
       1003.1000  1.18251e-09      43800.1
       1003.2000  1.18251e-09      43741.0
       1003.3000  1.18251e-09      43693.7
       1003.4000  1.18251e-09      43634.5
       1003.5000  1.45329e-09      53568.2
       1003.6000  1.45329e-09      53510.0
       1003.7000  1.45329e-09      53437.4
       1003.8000  1.43349e-09      52652.2
       1003.9000  1.43349e-09      52594.8
       1004.0000  1.43349e-09      52537.5
       1004.1000  1.43349e-09      52451.5
       1004.2000  1.43349e-09      52351.1
       1004.3000  1.43349e-09      52279.5
       1004.4000  1.43349e-09      52193.5
       1004.5000  1.09580e-09      39843.2
       1004.6000  1.09580e-09      39788.4
       1004.7000  1.09580e-09      39744.6
       1004.8000  1.09580e-09      39700.7
       1004.9000  1.09580e-09      39667.9
       1005.0000  1.09580e-09      39635.0
       1005.1000  1.09580e-09      39602.1
       1005.2000  1.09580e-09      39580.2
       1005.3000  1.09580e-09      39558.3
       1005.4000  1.09580e-09      39547.3
       1005.5000  1.42183e-09      51299.5
       1005.6000  1.42183e-09      51285.3
       1005.7000  1.42183e-09      51285.3
       1005.8000  1.42183e-09      51299.5
       1005.9000  1.42183e-09      51299.5
       1006.0000  1.42183e-09      51313.8
       1006.1000  1.42183e-09      51342.2
       1006.2000  1.42183e-09      51370.6
       1006.3000  1.40374e-09      50745.2
       1006.4000  1.40374e-09      50787.3
       1006.5000  1.24563e-09      45104.1
       1006.6000  1.24563e-09      45154.0
       1006.7000  1.24563e-09      45203.8
       1006.8000  1.24563e-09      45253.6
       1006.9000  1.24563e-09      45315.9
       1007.0000  1.24563e-09      45378.2
       1007.1000  1.24563e-09      45452.9
       1007.2000  1.24563e-09      45527.7
       1007.3000  1.24563e-09      45602.4
       1007.4000  1.24563e-09      45689.6
       1007.5000  1.45333e-09      53410.0
       1007.6000  1.45333e-09      53526.2
       1007.7000  1.45333e-09      53642.5
       1007.8000  1.45333e-09      53758.8
       1007.9000  1.45333e-09      53889.6
       1008.0000  1.45333e-09      54020.4
       1008.1000  1.45333e-09      54034.9
       1008.2000  1.45333e-09      54034.9
       1008.3000  1.45333e-09      54034.9
       1008.4000  1.45333e-09      54034.9
       1008.5000  1.82209e-09      67745.2
       1008.6000  1.82209e-09      67745.2
       1008.7000  1.82209e-09      67745.2
       1008.8000  1.80076e-09      66952.3
       1008.9000  1.80076e-09      66952.3
       1009.0000  1.80076e-09      66934.3
       1009.1000  1.80076e-09      66934.3
       1009.2000  1.80076e-09      66934.3
       1009.3000  1.80076e-09      66934.3
       1009.4000  1.80076e-09      66916.3
       1009.5000  2.66405e-09      98996.0
       1009.6000  2.66405e-09      98996.0
       1009.7000  2.66405e-09      98969.4
       1009.8000  2.66405e-09      98969.4
       1009.9000  2.66405e-09      98942.7
       1010.0000  2.66405e-09      98942.7
       1010.1000  2.66405e-09      98916.1
       1010.2000  2.66405e-09      98889.4
       1010.3000  2.66405e-09      98862.8
       1010.4000  2.66405e-09      98836.1
       1010.5000  3.67795e-09      136415.
       1010.6000  3.67795e-09      136378.
       1010.7000  3.67795e-09      136342.
       1010.8000  3.67795e-09      136305.
       1010.9000  3.67795e-09      136268.
       1011.0000  3.67795e-09      136231.
       1011.1000  3.67795e-09      136231.
       1011.2000  3.67795e-09      136195.
       1011.3000  3.63738e-09      134656.
       1011.4000  3.63738e-09      134619.
       1011.5000  4.09110e-09      151371.
       1011.6000  4.09110e-09      151330.
       1011.7000  4.09110e-09      151289.
       1011.8000  4.09110e-09      151248.
       1011.9000  4.09110e-09      151207.
       1012.0000  4.09110e-09      151166.
       1012.1000  4.09110e-09      151125.
       1012.2000  4.09110e-09      151084.
       1012.3000  4.09110e-09      151043.
       1012.4000  4.09110e-09      151003.
       1012.5000  7.14272e-09      263566.
       1012.6000  7.14272e-09      263495.
       1012.7000  7.14272e-09      263424.
       1012.8000  7.14272e-09      263352.
       1012.9000  7.14272e-09      263352.
       1013.0000  7.14272e-09      263281.
       1013.1000  7.14272e-09      263209.
       1013.2000  7.14272e-09      263138.
       1013.3000  7.14272e-09      263066.
       1013.4000  7.14272e-09      262995.
       1013.5000  5.06202e-09      186333.
       1013.6000  5.06202e-09      186282.
       1013.7000  5.06202e-09      186232.
       1013.8000  5.00997e-09      184267.
       1013.9000  5.00997e-09      184216.
       1014.0000  5.00997e-09      184166.
       1014.1000  5.00997e-09      184066.
       1014.2000  5.00997e-09      183966.
       1014.3000  5.00997e-09      183866.
       1014.4000  5.00997e-09      183766.
       1014.5000  5.08736e-09      186554.
       1014.6000  5.08736e-09      186452.
       1014.7000  5.08736e-09      186350.
       1014.8000  5.08736e-09      186299.
       1014.9000  5.08736e-09      186198.
       1015.0000  5.08736e-09      186147.
       1015.1000  5.08736e-09      186045.
       1015.2000  5.08736e-09      185994.
       1015.3000  5.08736e-09      185943.
       1015.4000  5.08736e-09      185841.
       1015.5000  8.01130e-09      292573.
       1015.6000  8.01130e-09      292492.
       1015.7000  8.01130e-09      292412.
       1015.8000  8.01130e-09      292332.
       1015.9000  8.01130e-09      292252.
       1016.0000  8.01130e-09      292172.
       1016.1000  8.01130e-09      292172.
       1016.2000  8.01130e-09      292172.
       1016.3000  7.93517e-09      289396.
       1016.4000  7.93517e-09      289316.
       1016.5000  1.07009e-08      390155.
       1016.6000  1.07009e-08      390155.
       1016.7000  1.07009e-08      390155.
       1016.8000  1.07009e-08      390048.
       1016.9000  1.07009e-08      390048.
       1017.0000  1.07009e-08      389941.
       1017.1000  1.07009e-08      389941.
       1017.2000  1.07009e-08      389834.
       1017.3000  1.07009e-08      389834.
       1017.4000  1.07009e-08      389727.
       1017.5000  1.59109e-08      579477.
       1017.6000  1.59109e-08      579317.
       1017.7000  1.59109e-08      579158.
       1017.8000  1.59109e-08      578999.
       1017.9000  1.59109e-08      578840.
       1018.0000  1.59109e-08      578840.
       1018.1000  1.59109e-08      578522.
       1018.2000  1.59109e-08      578204.
       1018.3000  1.59109e-08      577886.
       1018.4000  1.59109e-08      577567.
       1018.5000  1.72562e-08      626227.
       1018.6000  1.72562e-08      625882.
       1018.7000  1.72562e-08      625709.
       1018.8000  1.70982e-08      619637.
       1018.9000  1.70982e-08      619466.
       1019.0000  1.70982e-08      619124.
       1019.1000  1.70982e-08      618953.
       1019.2000  1.70982e-08      618782.
       1019.3000  1.70982e-08      618611.
       1019.4000  1.70982e-08      618269.
       1019.5000  2.09609e-08      757738.
       1019.6000  2.09609e-08      757528.
       1019.7000  2.09609e-08      757318.
       1019.8000  2.09609e-08      757318.
       1019.9000  2.09609e-08      757109.
       1020.0000  2.09609e-08      756899.
       1020.1000  2.09609e-08      756690.
       1020.2000  2.09609e-08      756480.
       1020.3000  2.09609e-08      756480.
       1020.4000  2.09609e-08      756270.
       1020.5000  2.53927e-08      916168.
       1020.6000  2.53927e-08      915914.
       1020.7000  2.53927e-08      915914.
       1020.8000  2.53927e-08      915661.
       1020.9000  2.53927e-08      915661.
       1021.0000  2.53927e-08      915661.
       1021.1000  2.53927e-08      915661.
       1021.2000  2.53927e-08      915661.
       1021.3000  2.52040e-08      908857.
       1021.4000  2.52040e-08      908857.
       1021.5000  2.90016e-08  1.04580e+06
       1021.6000  2.90016e-08  1.04580e+06
       1021.7000  2.90016e-08  1.04580e+06
       1021.8000  2.90016e-08  1.04609e+06
       1021.9000  2.90016e-08  1.04609e+06
       1022.0000  2.90016e-08  1.04638e+06
       1022.1000  2.90016e-08  1.04638e+06
       1022.2000  2.90016e-08  1.04667e+06
       1022.3000  2.90016e-08  1.04696e+06
       1022.4000  2.90016e-08  1.04696e+06
       1022.5000  3.84853e-08  1.38970e+06
       1022.6000  3.84853e-08  1.39009e+06
       1022.7000  3.84853e-08  1.39047e+06
       1022.8000  3.84853e-08  1.39086e+06
       1022.9000  3.84853e-08  1.39124e+06
       1023.0000  3.84853e-08  1.39163e+06
       1023.1000  3.84853e-08  1.39240e+06
       1023.2000  3.84853e-08  1.39278e+06
       1023.3000  3.84853e-08  1.39317e+06
       1023.4000  3.84853e-08  1.39394e+06
       1023.5000  6.48310e-08  2.34883e+06
       1023.6000  6.48310e-08  2.35013e+06
       1023.7000  6.48310e-08  2.35077e+06
       1023.8000  6.44242e-08  2.33731e+06
       1023.9000  6.44242e-08  2.33860e+06
       1024.0000  6.44242e-08  2.33989e+06
       1024.1000  6.44242e-08  2.33989e+06
       1024.2000  6.44242e-08  2.33924e+06
       1024.3000  6.44242e-08  2.33924e+06
       1024.4000  6.44242e-08  2.33924e+06
       1024.5000  8.13718e-08  2.95461e+06
       1024.6000  8.13718e-08  2.95379e+06
       1024.7000  8.13718e-08  2.95379e+06
       1024.8000  8.13718e-08  2.95379e+06
       1024.9000  8.13718e-08  2.95298e+06
       1025.0000  8.13718e-08  2.95298e+06
       1025.1000  8.13718e-08  2.95298e+06
       1025.2000  8.13718e-08  2.95217e+06
       1025.3000  8.13718e-08  2.95217e+06
       1025.4000  8.13718e-08  2.95217e+06
       1025.5000  9.41306e-08  3.41412e+06
       1025.6000  9.41306e-08  3.41412e+06
       1025.7000  9.41306e-08  3.41317e+06
       1025.8000  9.41306e-08  3.41317e+06
       1025.9000  9.41306e-08  3.41223e+06
       1026.0000  9.41306e-08  3.41223e+06
       1026.1000  9.41306e-08  3.41223e+06
       1026.2000  9.41306e-08  3.41129e+06
       1026.3000  9.35436e-08  3.39002e+06
       1026.4000  9.35436e-08  3.38908e+06
       1026.5000  9.45900e-08  3.42700e+06
       1026.6000  9.45900e-08  3.42605e+06
       1026.7000  9.45900e-08  3.42510e+06
       1026.8000  9.45900e-08  3.42510e+06
       1026.9000  9.45900e-08  3.42416e+06
       1027.0000  9.45900e-08  3.42416e+06
       1027.1000  9.45900e-08  3.42321e+06
       1027.2000  9.45900e-08  3.42227e+06
       1027.3000  9.45900e-08  3.42227e+06
       1027.4000  9.45900e-08  3.42132e+06
       1027.5000  1.25263e-07  4.52953e+06
       1027.6000  1.25263e-07  4.52953e+06
       1027.7000  1.25263e-07  4.52828e+06
       1027.8000  1.25263e-07  4.52702e+06
       1027.9000  1.25263e-07  4.52577e+06
       1028.0000  1.25263e-07  4.52452e+06
       1028.1000  1.25263e-07  4.52452e+06
       1028.2000  1.25263e-07  4.52326e+06
       1028.3000  1.25263e-07  4.52201e+06
       1028.4000  1.25263e-07  4.52076e+06
       1028.5000  1.53982e-07  5.55566e+06
       1028.6000  1.53982e-07  5.55412e+06
       1028.7000  1.53982e-07  5.55258e+06
       1028.8000  1.52661e-07  5.50343e+06
       1028.9000  1.52661e-07  5.50191e+06
       1029.0000  1.52661e-07  5.50038e+06
       1029.1000  1.52661e-07  5.49885e+06
       1029.2000  1.52661e-07  5.49733e+06
       1029.3000  1.52661e-07  5.49580e+06
       1029.4000  1.52661e-07  5.49428e+06
       1029.5000  1.70172e-07  6.12280e+06
       1029.6000  1.70172e-07  6.12110e+06
       1029.7000  1.70172e-07  6.11939e+06
       1029.8000  1.70172e-07  6.11769e+06
       1029.9000  1.70172e-07  6.11599e+06
       1030.0000  1.70172e-07  6.11259e+06
       1030.1000  1.70172e-07  6.11429e+06
       1030.2000  1.70172e-07  6.11429e+06
       1030.3000  1.70172e-07  6.11429e+06
       1030.4000  1.70172e-07  6.11429e+06
       1030.5000  1.96760e-07  7.06960e+06
       1030.6000  1.96760e-07  7.06960e+06
       1030.7000  1.96760e-07  7.06763e+06
       1030.8000  1.96760e-07  7.06763e+06
       1030.9000  1.96760e-07  7.06763e+06
       1031.0000  1.96760e-07  7.06567e+06
       1031.1000  1.96760e-07  7.06567e+06
       1031.2000  1.96760e-07  7.06370e+06
       1031.3000  1.94083e-07  6.96759e+06
       1031.4000  1.94083e-07  6.96565e+06
       1031.5000  1.65835e-07  5.95017e+06
       1031.6000  1.65835e-07  5.94851e+06
       1031.7000  1.65835e-07  5.94685e+06
       1031.8000  1.65835e-07  5.94520e+06
       1031.9000  1.65835e-07  5.94354e+06
       1032.0000  1.65835e-07  5.94188e+06
       1032.1000  1.65835e-07  5.93690e+06
       1032.2000  1.65835e-07  5.93027e+06
       1032.3000  1.65835e-07  5.92530e+06
       1032.4000  1.65835e-07  5.92198e+06
       1032.5000  2.19728e-07  7.83989e+06
       1032.6000  2.19728e-07  7.83329e+06
       1032.7000  2.19728e-07  7.82890e+06
       1032.8000  2.19728e-07  7.82231e+06
       1032.9000  2.19728e-07  7.81791e+06
       1033.0000  2.19728e-07  7.81352e+06
       1033.1000  2.19728e-07  7.80912e+06
       1033.2000  2.19728e-07  7.80693e+06
       1033.3000  2.19728e-07  7.80253e+06
       1033.4000  2.19728e-07  7.80034e+06
       1033.5000  2.16937e-07  7.69692e+06
       1033.6000  2.16937e-07  7.69475e+06
       1033.7000  2.16937e-07  7.69258e+06
       1033.8000  2.12807e-07  7.54402e+06
       1033.9000  2.12807e-07  7.54402e+06
       1034.0000  2.12807e-07  7.54189e+06
       1034.1000  2.12807e-07  7.54189e+06
       1034.2000  2.12807e-07  7.53976e+06
       1034.3000  2.12807e-07  7.53976e+06
       1034.4000  2.12807e-07  7.53976e+06
       1034.5000  1.93625e-07  6.86012e+06
       1034.6000  1.93625e-07  6.86205e+06
       1034.7000  1.93625e-07  6.86205e+06
       1034.8000  1.93625e-07  6.86399e+06
       1034.9000  1.93625e-07  6.86399e+06
       1035.0000  1.93625e-07  6.86593e+06
       1035.1000  1.93625e-07  6.86786e+06
       1035.2000  1.93625e-07  6.86980e+06
       1035.3000  1.93625e-07  6.87367e+06
       1035.4000  1.93625e-07  6.87561e+06
       1035.5000  1.61244e-07  5.72899e+06
       1035.6000  1.61244e-07  5.73222e+06
       1035.7000  1.61244e-07  5.73383e+06
       1035.8000  1.61244e-07  5.73706e+06
       1035.9000  1.61244e-07  5.74189e+06
       1036.0000  1.61244e-07  5.74512e+06
       1036.1000  1.61244e-07  5.74189e+06
       1036.2000  1.61244e-07  5.73867e+06
       1036.3000  1.57479e-07  5.60152e+06
       1036.4000  1.57479e-07  5.59837e+06
       1036.5000  1.42198e-07  5.05230e+06
       1036.6000  1.42198e-07  5.04946e+06
       1036.7000  1.42198e-07  5.04803e+06
       1036.8000  1.42198e-07  5.04519e+06
       1036.9000  1.42198e-07  5.04234e+06
       1037.0000  1.42198e-07  5.04092e+06
       1037.1000  1.42198e-07  5.03950e+06
       1037.2000  1.42198e-07  5.03666e+06
       1037.3000  1.42198e-07  5.03524e+06
       1037.4000  1.42198e-07  5.03381e+06
       1037.5000  1.62532e-07  5.75200e+06
       1037.6000  1.62532e-07  5.75037e+06
       1037.7000  1.62532e-07  5.74875e+06
       1037.8000  1.62532e-07  5.74712e+06
       1037.9000  1.62532e-07  5.74550e+06
       1038.0000  1.62532e-07  5.74387e+06
       1038.1000  1.62532e-07  5.74387e+06
       1038.2000  1.62532e-07  5.74387e+06
       1038.3000  1.62532e-07  5.74550e+06
       1038.4000  1.62532e-07  5.74550e+06
       1038.5000  1.99452e-07  7.05063e+06
       1038.6000  1.99452e-07  7.05063e+06
       1038.7000  1.99452e-07  7.05063e+06
       1038.8000  1.94263e-07  6.86719e+06
       1038.9000  1.94263e-07  6.86719e+06
       1039.0000  1.94263e-07  6.86719e+06
       1039.1000  1.94263e-07  6.86719e+06
       1039.2000  1.94263e-07  6.86719e+06
       1039.3000  1.94263e-07  6.86719e+06
       1039.4000  1.94263e-07  6.86719e+06
       1039.5000  1.54290e-07  5.45415e+06
       1039.6000  1.54290e-07  5.45415e+06
       1039.7000  1.54290e-07  5.45415e+06
       1039.8000  1.54290e-07  5.45415e+06
       1039.9000  1.54290e-07  5.45415e+06
       1040.0000  1.54290e-07  5.45415e+06
       1040.1000  1.54290e-07  5.45415e+06
       1040.2000  1.54290e-07  5.45415e+06
       1040.3000  1.54290e-07  5.45415e+06
       1040.4000  1.54290e-07  5.45415e+06
       1040.5000  1.38662e-07  4.90169e+06
       1040.6000  1.38662e-07  4.90169e+06
       1040.7000  1.38662e-07  4.90169e+06
       1040.8000  1.38662e-07  4.90169e+06
       1040.9000  1.38662e-07  4.90169e+06
       1041.0000  1.38662e-07  4.90169e+06
       1041.1000  1.38662e-07  4.90169e+06
       1041.2000  1.38662e-07  4.90169e+06
       1041.3000  1.34690e-07  4.76130e+06
       1041.4000  1.34690e-07  4.76130e+06
       1041.5000  1.18244e-07  4.17992e+06
       1041.6000  1.18244e-07  4.17992e+06
       1041.7000  1.18244e-07  4.17992e+06
       1041.8000  1.18244e-07  4.17873e+06
       1041.9000  1.18244e-07  4.17873e+06
       1042.0000  1.18244e-07  4.17873e+06
       1042.1000  1.18244e-07  4.17992e+06
       1042.2000  1.18244e-07  4.17992e+06
       1042.3000  1.18244e-07  4.18110e+06
       1042.4000  1.18244e-07  4.18110e+06
       1042.5000  7.69716e-08  2.72172e+06
       1042.6000  7.69716e-08  2.72172e+06
       1042.7000  7.69716e-08  2.72172e+06
       1042.8000  7.69716e-08  2.72095e+06
       1042.9000  7.69716e-08  2.72095e+06
       1043.0000  7.69716e-08  2.72095e+06
       1043.1000  7.69716e-08  2.72018e+06
       1043.2000  7.69716e-08  2.71941e+06
       1043.3000  7.69716e-08  2.71941e+06
       1043.4000  7.69716e-08  2.71864e+06
       1043.5000  1.47895e-07  5.22216e+06
       1043.6000  1.47895e-07  5.22068e+06
       1043.7000  1.47895e-07  5.21920e+06
       1043.8000  1.43664e-07  5.06703e+06
       1043.9000  1.43664e-07  5.06560e+06
       1044.0000  1.43664e-07  5.06272e+06
       1044.1000  1.43664e-07  5.05698e+06
       1044.2000  1.43664e-07  5.04979e+06
       1044.3000  1.43664e-07  5.04405e+06
       1044.4000  1.43664e-07  5.03830e+06
       1044.5000  1.09083e-07  3.82116e+06
       1044.6000  1.09083e-07  3.81789e+06
       1044.7000  1.09083e-07  3.81352e+06
       1044.8000  1.09083e-07  3.81025e+06
       1044.9000  1.09083e-07  3.80698e+06
       1045.0000  1.09083e-07  3.80371e+06
       1045.1000  1.09083e-07  3.80153e+06
       1045.2000  1.09083e-07  3.79825e+06
       1045.3000  1.09083e-07  3.79607e+06
       1045.4000  1.09083e-07  3.79389e+06
       1045.5000  8.51414e-08  2.96037e+06
       1045.6000  8.51414e-08  2.95866e+06
       1045.7000  8.51414e-08  2.95781e+06
       1045.8000  8.51414e-08  2.95696e+06
       1045.9000  8.51414e-08  2.95611e+06
       1046.0000  8.51414e-08  2.95526e+06
       1046.1000  8.51414e-08  2.95526e+06
       1046.2000  8.51414e-08  2.95441e+06
       1046.3000  8.27245e-08  2.87054e+06
       1046.4000  8.27245e-08  2.87054e+06
       1046.5000  7.35326e-08  2.55232e+06
       1046.6000  7.35326e-08  2.55232e+06
       1046.7000  7.35326e-08  2.55305e+06
       1046.8000  7.35326e-08  2.55379e+06
       1046.9000  7.35326e-08  2.55452e+06
       1047.0000  7.35326e-08  2.55599e+06
       1047.1000  7.35326e-08  2.55673e+06
       1047.2000  7.35326e-08  2.55820e+06
       1047.3000  7.35326e-08  2.55967e+06
       1047.4000  7.35326e-08  2.56114e+06
       1047.5000  7.10102e-08  2.47542e+06
       1047.6000  7.10102e-08  2.47684e+06
       1047.7000  7.10102e-08  2.47897e+06
       1047.8000  7.10102e-08  2.48110e+06
       1047.9000  7.10102e-08  2.48323e+06
       1048.0000  7.10102e-08  2.48607e+06
       1048.1000  7.10102e-08  2.48607e+06
       1048.2000  7.10102e-08  2.48607e+06
       1048.3000  7.10102e-08  2.48607e+06
       1048.4000  7.10102e-08  2.48536e+06
       1048.5000  8.79126e-08  3.07694e+06
       1048.6000  8.79126e-08  3.07694e+06
       1048.7000  8.79126e-08  3.07694e+06
       1048.8000  8.56134e-08  2.99647e+06
       1048.9000  8.56134e-08  2.99647e+06
       1049.0000  8.56134e-08  2.99561e+06
       1049.1000  8.56134e-08  2.99561e+06
       1049.2000  8.56134e-08  2.99561e+06
       1049.3000  8.56134e-08  2.99476e+06
       1049.4000  8.56134e-08  2.99476e+06
       1049.5000  7.97038e-08  2.78804e+06
       1049.6000  7.97038e-08  2.78724e+06
       1049.7000  7.97038e-08  2.78724e+06
       1049.8000  7.97038e-08  2.78724e+06
       1049.9000  7.97038e-08  2.78645e+06
       1050.0000  7.97038e-08  2.78645e+06
       1050.1000  7.97038e-08  2.78565e+06
       1050.2000  7.97038e-08  2.78565e+06
       1050.3000  7.97038e-08  2.78485e+06
       1050.4000  7.97038e-08  2.78406e+06
       1050.5000  4.64064e-08  1.62098e+06
       1050.6000  4.64064e-08  1.62051e+06
       1050.7000  4.64064e-08  1.62051e+06
       1050.8000  4.64064e-08  1.62005e+06
       1050.9000  4.64064e-08  1.61958e+06
       1051.0000  4.64064e-08  1.61958e+06
       1051.1000  4.64064e-08  1.61912e+06
       1051.2000  4.64064e-08  1.61912e+06
       1051.3000  4.53680e-08  1.58243e+06
       1051.4000  4.53680e-08  1.58198e+06
       1051.5000  4.15826e-08  1.44999e+06
       1051.6000  4.15826e-08  1.44957e+06
       1051.7000  4.15826e-08  1.44915e+06
       1051.8000  4.15826e-08  1.44915e+06
       1051.9000  4.15826e-08  1.44874e+06
       1052.0000  4.15826e-08  1.44874e+06
       1052.1000  4.15826e-08  1.44832e+06
       1052.2000  4.15826e-08  1.44791e+06
       1052.3000  4.15826e-08  1.44791e+06
       1052.4000  4.15826e-08  1.44749e+06
       1052.5000  3.88787e-08  1.35298e+06
       1052.6000  3.88787e-08  1.35298e+06
       1052.7000  3.88787e-08  1.35259e+06
       1052.8000  3.88787e-08  1.35220e+06
       1052.9000  3.88787e-08  1.35220e+06
       1053.0000  3.88787e-08  1.35181e+06
       1053.1000  3.88787e-08  1.35181e+06
       1053.2000  3.88787e-08  1.35143e+06
       1053.3000  3.88787e-08  1.35104e+06
       1053.4000  3.88787e-08  1.35104e+06
       1053.5000  3.53518e-08  1.22812e+06
       1053.6000  3.53518e-08  1.22777e+06
       1053.7000  3.53518e-08  1.22777e+06
       1053.8000  3.46915e-08  1.20449e+06
       1053.9000  3.46915e-08  1.20414e+06
       1054.0000  3.46915e-08  1.20414e+06
       1054.1000  3.46915e-08  1.20484e+06
       1054.2000  3.46915e-08  1.20518e+06
       1054.3000  3.46915e-08  1.20588e+06
       1054.4000  3.46915e-08  1.20657e+06
       1054.5000  2.07538e-08      722023.
       1054.6000  2.07538e-08      722231.
       1054.7000  2.07538e-08      722438.
       1054.8000  2.07538e-08      722646.
       1054.9000  2.07538e-08      722853.
       1055.0000  2.07538e-08      723061.
       1055.1000  2.07538e-08      723061.
       1055.2000  2.07538e-08      723061.
       1055.3000  2.07538e-08      723268.
       1055.4000  2.07538e-08      723268.
       1055.5000  2.26310e-08      788465.
       1055.6000  2.26310e-08      788465.
       1055.7000  2.26310e-08      788465.
       1055.8000  2.26310e-08      788238.
       1055.9000  2.26310e-08      788012.
       1056.0000  2.26310e-08      787786.
       1056.1000  2.26310e-08      787107.
       1056.2000  2.26310e-08      786428.
       1056.3000  2.22183e-08      771419.
       1056.4000  2.22183e-08      770530.
       1056.5000  9.77675e-09      338765.
       1056.6000  9.77675e-09      338569.
       1056.7000  9.77675e-09      338276.
       1056.8000  9.77675e-09      337982.
       1056.9000  9.77675e-09      337689.
       1057.0000  9.77675e-09      337494.
