PDS_VERSION_ID         = PDS3
RECORD_TYPE            = STREAM
OBJECT                 = TEXT
  PUBLICATION_DATE     = 2014-04-25
  INTERCHANGE_FORMAT   = ASCII
  NOTE                 = "System transmission vs. wavelength."
END_OBJECT             = TEXT
END
    
The systrans directory contains the non-wavelength-integrated system 
transmission values (QE*optics*filter1*filter2) for each filter combination. 
The naming convention for these files is as follows:

<camera><filter 1><filter 2>_systrans.tab

where <camera> is "issna" or "isswa," and <filter 1> and <filter 2> represent
the filter names. For polarized filter combinations, values are given for the
parallel orientation of the filter (full transmission), with values for the 
perpendicular (blocking) orientation provided in files with subscript 
"_b_systrans.tab". 

Columns in systrans files are as follows:

 1st column: Wavelength (nm)  
 2nd column: Transmitted Flux
 3rd column: Transmitted Flux * Solar Flux (phot per cm^2-s-angstrom at 1 AU)

The solar spectrum used for this calculation is provided in solarflux.tab.

\begindata
       600.00000  2.59456e-10      13818.7
       600.10000  2.59456e-10      13797.9
       600.20000  2.59456e-10      13774.5
       600.30000  2.59456e-10      13746.0
       600.40000  2.59456e-10      13712.3
       600.50000  1.60007e-10      8435.57
       600.60000  1.60007e-10      8446.77
       600.70000  1.60007e-10      8456.37
       600.80000  1.60007e-10      8465.97
       600.90000  1.60007e-10      8472.37
       601.00000  1.60007e-10      8477.17
       601.10000  1.60007e-10      8478.77
       601.20000  1.60007e-10      8480.37
       601.30000  1.59925e-10      8476.04
       601.40000  1.59925e-10      8472.84
       601.50000  2.03297e-10      10766.6
       601.60000  2.03297e-10      10719.8
       601.70000  2.03297e-10      10681.2
       601.80000  2.03297e-10      10646.7
       601.90000  2.03297e-10      10620.2
       602.00000  2.03297e-10      10599.9
       602.10000  2.03297e-10      10583.6
       602.20000  2.03297e-10      10575.5
       602.30000  2.03297e-10      10573.5
       602.40000  2.03297e-10      10577.5
       602.50000  1.24804e-10      6498.54
       602.60000  1.24804e-10      6508.52
       602.70000  1.24804e-10      6522.25
       602.80000  1.24804e-10      6539.72
       602.90000  1.24804e-10      6560.94
       603.00000  1.24804e-10      6585.90
       603.10000  1.24804e-10      6614.61
       603.20000  1.24804e-10      6647.06
       603.30000  1.24804e-10      6683.25
       603.40000  1.24804e-10      6723.19
       603.50000  8.87352e-11      4811.22
       603.60000  8.87352e-11      4809.45
       603.70000  8.87352e-11      4807.67
       603.80000  8.87807e-11      4808.36
       603.90000  8.87807e-11      4805.70
       604.00000  8.87807e-11      4803.92
       604.10000  8.87807e-11      4801.26
       604.20000  8.87807e-11      4799.49
       604.30000  8.87807e-11      4796.82
       604.40000  8.87807e-11      4795.05
       604.50000  1.74904e-15    0.0944132
       604.60000  1.74904e-15    0.0943432
       604.70000  1.74904e-15    0.0942732
       604.80000  1.74904e-15    0.0942033
       604.90000  1.74904e-15    0.0941333
       605.00000  1.74904e-15    0.0940808
       605.10000  1.74904e-15    0.0940284
       605.20000  1.74904e-15    0.0939934
       605.30000  1.74904e-15    0.0939409
       605.40000  1.74904e-15    0.0939059
       605.50000  1.58696e-10      8517.19
       605.60000  1.58696e-10      8515.60
       605.70000  1.58696e-10      8512.43
       605.80000  1.58696e-10      8510.84
       605.90000  1.58696e-10      8510.84
       606.00000  1.58696e-10      8509.25
       606.10000  1.58696e-10      8509.25
       606.20000  1.58696e-10      8509.25
       606.30000  1.58868e-10      8518.52
       606.40000  1.58868e-10      8520.10
       606.50000  2.18265e-10      11707.8
       606.60000  2.18265e-10      11712.1
       606.70000  2.18265e-10      11714.3
       606.80000  2.18265e-10      11718.7
       606.90000  2.18265e-10      11718.7
       607.00000  2.18265e-10      11720.9
       607.10000  2.18265e-10      11720.9
       607.20000  2.18265e-10      11720.9
       607.30000  2.18265e-10      11718.7
       607.40000  2.18265e-10      11716.5
       607.50000  1.07943e-10      5793.32
       607.60000  1.07943e-10      5786.84
       607.70000  1.07943e-10      5781.45
       607.80000  1.07943e-10      5777.13
       607.90000  1.07943e-10      5772.81
       608.00000  1.07943e-10      5768.49
       608.10000  1.07943e-10      5765.25
       608.20000  1.07943e-10      5762.02
       608.30000  1.07943e-10      5759.86
       608.40000  1.07943e-10      5757.70
       608.50000  1.56602e-10      8351.60
       608.60000  1.56602e-10      8350.03
       608.70000  1.56602e-10      8348.46
       608.80000  1.56671e-10      8352.14
       608.90000  1.56671e-10      8353.70
       609.00000  1.56671e-10      8355.27
       609.10000  1.56671e-10      8356.84
       609.20000  1.56671e-10      8359.97
       609.30000  1.56671e-10      8363.10
       609.40000  1.56671e-10      8367.80
       609.50000  8.66913e-12      463.365
       609.60000  8.66913e-12      461.284
       609.70000  8.66913e-12      459.464
       609.80000  8.66913e-12      457.903
       609.90000  8.66913e-12      456.603
       610.00000  8.66913e-12      455.476
       610.10000  8.66913e-12      454.522
       610.20000  8.66913e-12      453.829
       610.30000  8.66913e-12      453.395
       610.40000  8.66913e-12      453.222
       610.50000  5.05512e-11      2642.31
       610.60000  5.05512e-11      2655.45
       610.70000  5.05512e-11      2667.08
       610.80000  5.05512e-11      2677.70
       610.90000  5.05512e-11      2686.80
       611.00000  5.05512e-11      2694.38
       611.10000  5.05512e-11      2700.95
       611.20000  5.05512e-11      2706.00
       611.30000  5.05709e-11      2711.10
       611.40000  5.05709e-11      2713.63
       611.50000  6.36003e-11      3414.06
       611.60000  6.36003e-11      3414.06
       611.70000  6.36003e-11      3412.16
       611.80000  6.36003e-11      3408.97
       611.90000  6.36003e-11      3403.89
       612.00000  6.36003e-11      3397.53
       612.10000  6.36003e-11      3389.26
       612.20000  6.36003e-11      3379.08
       612.30000  6.36003e-11      3367.63
       612.40000  6.36003e-11      3354.28
       612.50000  6.45844e-11      3391.33
       612.60000  6.45844e-11      3382.93
       612.70000  6.45844e-11      3375.18
       612.80000  6.45844e-11      3368.72
       612.90000  6.45844e-11      3363.56
       613.00000  6.45844e-11      3359.03
       613.10000  6.45844e-11      3355.81
       613.20000  6.45844e-11      3353.22
       613.30000  6.45844e-11      3351.93
       613.40000  6.45844e-11      3351.93
       613.50000  2.83149e-10      14698.3
       613.60000  2.83149e-10      14740.8
       613.70000  2.83149e-10      14777.6
       613.80000  2.83090e-10      14808.4
       613.90000  2.83090e-10      14842.4
       614.00000  2.83090e-10      14873.5
       614.10000  2.83090e-10      14899.0
       614.20000  2.83090e-10      14924.5
       614.30000  2.83090e-10      14947.1
       614.40000  2.83090e-10      14967.0
       614.50000  2.51402e-10      13306.7
       614.60000  2.51402e-10      13319.3
       614.70000  2.51402e-10      13329.4
       614.80000  2.51402e-10      13336.9
       614.90000  2.51402e-10      13341.9
       615.00000  2.51402e-10      13344.4
       615.10000  2.51402e-10      13347.0
       615.20000  2.51402e-10      13344.4
       615.30000  2.51402e-10      13341.9
       615.40000  2.51402e-10      13336.9
       615.50000  8.91096e-11      4723.70
       615.60000  8.91096e-11      4671.13
       615.70000  8.91096e-11      4623.01
       615.80000  8.91096e-11      4581.13
       615.90000  8.91096e-11      4545.48
       616.00000  8.91096e-11      4514.29
       616.10000  8.91096e-11      4489.34
       616.20000  8.91096e-11      4469.74
       616.30000  8.92488e-11      4462.44
       616.40000  8.92488e-11      4454.41
       616.50000  1.06258e-10      5299.08
       616.60000  1.06258e-10      5344.77
       616.70000  1.06258e-10      5387.28
       616.80000  1.06258e-10      5426.59
       616.90000  1.06258e-10      5463.78
       617.00000  1.06258e-10      5498.85
       617.10000  1.06258e-10      5530.72
       617.20000  1.06258e-10      5559.41
       617.30000  1.06258e-10      5585.98
       617.40000  1.06258e-10      5610.42
       617.50000  1.08231e-10      5736.25
       617.60000  1.08231e-10      5754.65
       617.70000  1.08231e-10      5770.88
       617.80000  1.08231e-10      5784.95
       617.90000  1.08231e-10      5794.69
       618.00000  1.08231e-10      5803.35
       618.10000  1.08231e-10      5808.76
       618.20000  1.08231e-10      5810.93
       618.30000  1.08231e-10      5810.93
       618.40000  1.08231e-10      5807.68
       618.50000  1.43437e-10      7689.68
       618.60000  1.43437e-10      7675.34
       618.70000  1.43437e-10      7660.99
       618.80000  1.43583e-10      7658.71
       618.90000  1.43583e-10      7648.66
       619.00000  1.43583e-10      7641.48
       619.10000  1.43583e-10      7635.73
       619.20000  1.43583e-10      7632.86
       619.30000  1.43583e-10      7631.43
       619.40000  1.43583e-10      7631.43
       619.50000  1.88665e-10      10031.3
       619.60000  1.88665e-10      10067.2
       619.70000  1.88665e-10      10099.2
       619.80000  1.88665e-10      10127.5
       619.90000  1.88665e-10      10152.1
       620.00000  1.88665e-10      10170.9
       620.10000  1.88665e-10      10186.0
       620.20000  1.88665e-10      10197.4
       620.30000  1.88665e-10      10204.9
       620.40000  1.88665e-10      10206.8
       620.50000  6.08757e-11      3293.37
       620.60000  6.08757e-11      3279.98
       620.70000  6.08757e-11      3267.20
       620.80000  6.08757e-11      3256.24
       620.90000  6.08757e-11      3246.50
       621.00000  6.08757e-11      3237.98
       621.10000  6.08757e-11      3230.67
       621.20000  6.08757e-11      3225.19
       621.30000  6.08969e-11      3221.44
       621.40000  6.08969e-11      3217.79
       621.50000  1.61698e-10      8539.27
       621.60000  1.61698e-10      8568.37
       621.70000  1.61698e-10      8594.24
       621.80000  1.61698e-10      8615.26
       621.90000  1.61698e-10      8634.67
       622.00000  1.61698e-10      8649.22
       622.10000  1.61698e-10      8660.54
       622.20000  1.61698e-10      8667.01
       622.30000  1.61698e-10      8671.86
       622.40000  1.61698e-10      8671.86
       622.50000  1.17670e-10      6308.26
       622.60000  1.17670e-10      6303.56
       622.70000  1.17670e-10      6296.50
       622.80000  1.17670e-10      6287.08
       622.90000  1.17670e-10      6274.14
       623.00000  1.17670e-10      6260.02
       623.10000  1.17670e-10      6242.37
       623.20000  1.17670e-10      6221.19
       623.30000  1.17670e-10      6198.83
       623.40000  1.17670e-10      6172.94
       623.50000  1.78576e-10      9327.02
       623.60000  1.78576e-10      9325.24
       623.70000  1.78576e-10      9325.24
       623.80000  1.78491e-10      9317.23
       623.90000  1.78491e-10      9315.44
       624.00000  1.78491e-10      9311.88
       624.10000  1.78491e-10      9306.52
       624.20000  1.78491e-10      9301.17
       624.30000  1.78491e-10      9295.81
       624.40000  1.78491e-10      9288.67
       624.50000  3.98311e-11      2071.22
       624.60000  3.98311e-11      2063.25
       624.70000  3.98311e-11      2056.88
       624.80000  3.98311e-11      2051.30
       624.90000  3.98311e-11      2046.92
       625.00000  3.98311e-11      2043.73
       625.10000  3.98311e-11      2041.74
       625.20000  3.98311e-11      2040.55
       625.30000  3.98311e-11      2040.95
       625.40000  3.98311e-11      2042.14
       625.50000  1.37194e-10      7042.17
       625.60000  1.37194e-10      7053.14
       625.70000  1.37194e-10      7069.61
       625.80000  1.37194e-10      7088.81
       625.90000  1.37194e-10      7112.14
       626.00000  1.37194e-10      7139.57
       626.10000  1.37194e-10      7171.13
       626.20000  1.37194e-10      7205.43
       626.30000  1.37036e-10      7236.87
       626.40000  1.37036e-10      7279.35
       626.50000  2.07095e-10      11069.2
       626.60000  2.07095e-10      11071.3
       626.70000  2.07095e-10      11073.4
       626.80000  2.07095e-10      11075.5
       626.90000  2.07095e-10      11077.5
       627.00000  2.07095e-10      11079.6
       627.10000  2.07095e-10      11081.7
       627.20000  2.07095e-10      11081.7
       627.30000  2.07095e-10      11083.7
       627.40000  2.07095e-10      11085.8
       627.50000  4.11356e-11      2202.40
       627.60000  4.11356e-11      2204.05
       627.70000  4.11356e-11      2205.28
       627.80000  4.11356e-11      2206.10
       627.90000  4.11356e-11      2206.93
       628.00000  4.11356e-11      2207.34
       628.10000  4.11356e-11      2207.75
       628.20000  4.11356e-11      2207.75
       628.30000  4.11356e-11      2207.34
       628.40000  4.11356e-11      2206.93
       628.50000  2.28193e-11      1223.80
       628.60000  2.28193e-11      1223.12
       628.70000  2.28193e-11      1222.43
       628.80000  2.27682e-11      1218.78
       628.90000  2.27682e-11      1217.64
       629.00000  2.27682e-11      1216.51
       629.10000  2.27682e-11      1215.14
       629.20000  2.27682e-11      1213.77
       629.30000  2.27682e-11      1212.18
       629.40000  2.27682e-11      1210.36
       629.50000  5.75862e-11      3056.68
       629.60000  5.75862e-11      3050.34
       629.70000  5.75862e-11      3044.01
       629.80000  5.75862e-11      3038.25
       629.90000  5.75862e-11      3033.07
       630.00000  5.75862e-11      3027.88
       630.10000  5.75862e-11      3022.70
       630.20000  5.75862e-11      3018.67
       630.30000  5.75862e-11      3014.06
       630.40000  5.75862e-11      3010.61
       630.50000  3.01766e-11      1575.82
       630.60000  3.01766e-11      1574.01
       630.70000  3.01766e-11      1572.50
       630.80000  3.01766e-11      1571.30
       630.90000  3.01766e-11      1570.09
       631.00000  3.01766e-11      1569.18
       631.10000  3.01766e-11      1570.09
       631.20000  3.01766e-11      1570.99
       631.30000  3.00947e-11      1567.93
       631.40000  3.00947e-11      1568.84
       631.50000  2.50343e-11      1305.79
       631.60000  2.50343e-11      1306.54
       631.70000  2.50343e-11      1307.29
       631.80000  2.50343e-11      1307.79
       631.90000  2.50343e-11      1308.54
       632.00000  2.50343e-11      1309.30
       632.10000  2.50343e-11      1310.05
       632.20000  2.50343e-11      1310.55
       632.30000  2.50343e-11      1311.30
       632.40000  2.50343e-11      1312.05
       632.50000  2.85375e-11      1496.22
       632.60000  2.85375e-11      1496.79
       632.70000  2.85375e-11      1497.65
       632.80000  2.85375e-11      1498.22
       632.90000  2.85375e-11      1498.79
       633.00000  2.85375e-11      1499.65
       633.10000  2.85375e-11      1500.22
       633.20000  2.85375e-11      1500.79
       633.30000  2.85375e-11      1501.36
       633.40000  2.85375e-11      1501.93
       633.50000  1.69649e-10      8932.02
       633.60000  1.69649e-10      8935.41
       633.70000  1.69649e-10      8938.81
       633.80000  1.69195e-10      8916.57
       633.90000  1.69195e-10      8919.96
       634.00000  1.69195e-10      8923.34
       634.10000  1.69195e-10      8925.03
       634.20000  1.69195e-10      8928.42
       634.30000  1.69195e-10      8930.11
       634.40000  1.69195e-10      8933.49
       634.50000  3.93746e-11      2079.37
       634.60000  3.93746e-11      2079.77
       634.70000  3.93746e-11      2080.55
       634.80000  3.93746e-11      2080.95
       634.90000  3.93746e-11      2081.34
       635.00000  3.93746e-11      2081.74
       635.10000  3.93746e-11      2082.13
       635.20000  3.93746e-11      2082.13
       635.30000  3.93746e-11      2082.52
       635.40000  3.93746e-11      2082.52
       635.50000  1.05649e-11      558.885
       635.60000  1.05649e-11      558.990
       635.70000  1.05649e-11      558.990
       635.80000  1.05649e-11      559.096
       635.90000  1.05649e-11      559.096
       636.00000  1.05649e-11      559.202
       636.10000  1.05649e-11      559.202
       636.20000  1.05649e-11      559.307
       636.30000  1.05268e-11      557.290
       636.40000  1.05268e-11      557.396
       636.50000  7.54106e-11      3992.99
       636.60000  7.54106e-11      3993.75
       636.70000  7.54106e-11      3993.75
       636.80000  7.54106e-11      3994.50
       636.90000  7.54106e-11      3994.50
       637.00000  7.54106e-11      3994.50
       637.10000  7.54106e-11      3995.25
       637.20000  7.54106e-11      3995.25
       637.30000  7.54106e-11      3996.01
       637.40000  7.54106e-11      3996.01
       637.50000  1.07311e-10      5686.40
       637.60000  1.07311e-10      5687.47
       637.70000  1.07311e-10      5687.47
       637.80000  1.07311e-10      5688.54
       637.90000  1.07311e-10      5688.54
       638.00000  1.07311e-10      5688.54
       638.10000  1.07311e-10      5689.62
       638.20000  1.07311e-10      5689.62
       638.30000  1.07311e-10      5689.62
       638.40000  1.07311e-10      5690.69
       638.50000  2.11027e-11      1119.08
       638.60000  2.11027e-11      1119.08
       638.70000  2.11027e-11      1119.29
       638.80000  2.10433e-11      1116.13
       638.90000  2.10433e-11      1116.13
       639.00000  2.10433e-11      1116.13
       639.10000  2.10433e-11      1114.45
       639.20000  2.10433e-11      1112.77
       639.30000  2.10433e-11      1111.08
       639.40000  2.10433e-11      1109.61
       639.50000  5.00002e-11      2632.51
       639.60000  5.00002e-11      2629.51
       639.70000  5.00002e-11      2626.01
       639.80000  5.00002e-11      2623.01
       639.90000  5.00002e-11      2620.51
       640.00000  5.00002e-11      2617.51
       640.10000  5.00002e-11      2615.01
       640.20000  5.00002e-11      2613.01
       640.30000  5.00002e-11      2611.01
       640.40000  5.00002e-11      2609.01
       640.50000  1.19263e-10      6218.37
       640.60000  1.19263e-10      6214.79
       640.70000  1.19263e-10      6211.22
       640.80000  1.19263e-10      6208.83
       640.90000  1.19263e-10      6205.25
       641.00000  1.19263e-10      6204.06
       641.10000  1.19263e-10      6206.45
       641.20000  1.19263e-10      6208.83
       641.30000  1.18888e-10      6191.68
       641.40000  1.18888e-10      6194.06
       641.50000  3.60801e-11      1880.50
       641.60000  3.60801e-11      1881.22
       641.70000  3.60801e-11      1881.94
       641.80000  3.60801e-11      1882.66
       641.90000  3.60801e-11      1883.38
       642.00000  3.60801e-11      1884.10
       642.10000  3.60801e-11      1884.46
       642.20000  3.60801e-11      1885.19
       642.30000  3.60801e-11      1885.91
       642.40000  3.60801e-11      1886.63
       642.50000  5.68383e-11      2973.21
       642.60000  5.68383e-11      2974.35
       642.70000  5.68383e-11      2975.48
       642.80000  5.68383e-11      2976.62
       642.90000  5.68383e-11      2977.76
       643.00000  5.68383e-11      2978.89
       643.10000  5.68383e-11      2979.46
       643.20000  5.68383e-11      2980.60
       643.30000  5.68383e-11      2981.74
       643.40000  5.68383e-11      2982.87
       643.50000  2.08475e-11      1094.50
       643.60000  2.08475e-11      1094.91
       643.70000  2.08475e-11      1095.12
       643.80000  2.07696e-11      1091.44
       643.90000  2.07696e-11      1091.86
       644.00000  2.07696e-11      1092.27
       644.10000  2.07696e-11      1092.69
       644.20000  2.07696e-11      1092.89
       644.30000  2.07696e-11      1093.31
       644.40000  2.07696e-11      1093.73
       644.50000  4.63405e-16    0.0244122
       644.60000  4.63405e-16    0.0244168
       644.70000  4.63405e-16    0.0244261
       644.80000  4.63405e-16    0.0244354
       644.90000  4.63405e-16    0.0244446
       645.00000  4.63405e-16    0.0244493
       645.10000  4.63405e-16    0.0244446
       645.20000  4.63405e-16    0.0244354
       645.30000  4.63405e-16    0.0244307
       645.40000  4.63405e-16    0.0244215
       645.50000  6.41672e-11      3379.69
       645.60000  6.41672e-11      3378.40
       645.70000  6.41672e-11      3377.12
       645.80000  6.41672e-11      3375.20
       645.90000  6.41672e-11      3373.27
       646.00000  6.41672e-11      3371.35
       646.10000  6.41672e-11      3369.42
       646.20000  6.41672e-11      3367.50
       646.30000  6.39012e-11      3350.98
       646.40000  6.39012e-11      3348.42
       646.50000  7.15754e-11      3748.40
       646.60000  7.15754e-11      3744.83
       646.70000  7.15754e-11      3741.96
       646.80000  7.15754e-11      3739.10
       646.90000  7.15754e-11      3735.52
       647.00000  7.15754e-11      3732.66
       647.10000  7.15754e-11      3722.64
       647.20000  7.15754e-11      3713.33
       647.30000  7.15754e-11      3704.74
       647.40000  7.15754e-11      3696.15
       647.50000  1.24886e-10      6435.36
       647.60000  1.24886e-10      6424.12
       647.70000  1.24886e-10      6411.63
       647.80000  1.24886e-10      6401.64
       647.90000  1.24886e-10      6391.65
       648.00000  1.24886e-10      6382.91
       648.10000  1.24886e-10      6375.42
       648.20000  1.24886e-10      6369.17
       648.30000  1.24886e-10      6362.93
       648.40000  1.24886e-10      6357.93
       648.50000  1.00965e-10      5137.12
       648.60000  1.00965e-10      5135.10
       648.70000  1.00965e-10      5133.08
       648.80000  1.00551e-10      5110.99
       648.90000  1.00551e-10      5110.99
       649.00000  1.00551e-10      5111.99
       649.10000  1.00551e-10      5113.00
       649.20000  1.00551e-10      5116.01
       649.30000  1.00551e-10      5118.02
       649.40000  1.00551e-10      5122.05
       649.50000  9.75798e-11      4975.59
       649.60000  9.75798e-11      4980.47
       649.70000  9.75798e-11      4986.33
       649.80000  9.75798e-11      4993.16
       649.90000  9.75798e-11      4999.99
       650.00000  9.75798e-11      5007.80
       650.10000  9.75798e-11      5016.58
       650.20000  9.75798e-11      5026.34
       650.30000  9.75798e-11      5037.07
       650.40000  9.75798e-11      5047.80
       650.50000  5.03648e-11      2611.42
       650.60000  5.03648e-11      2617.96
       650.70000  5.03648e-11      2624.51
       650.80000  5.03648e-11      2632.06
       650.90000  5.03648e-11      2639.62
       651.00000  5.03648e-11      2647.68
       651.10000  5.03648e-11      2649.69
       651.20000  5.03648e-11      2651.71
       651.30000  5.01420e-11      2641.48
       651.40000  5.01420e-11      2642.98
       651.50000  5.42551e-11      2861.41
       651.60000  5.42551e-11      2861.95
       651.70000  5.42551e-11      2863.04
       651.80000  5.42551e-11      2863.58
       651.90000  5.42551e-11      2863.58
       652.00000  5.42551e-11      2863.58
       652.10000  5.42551e-11      2863.04
       652.20000  5.42551e-11      2862.50
       652.30000  5.42551e-11      2861.95
       652.40000  5.42551e-11      2860.87
       652.50000  8.23889e-11      4341.89
       652.60000  8.23889e-11      4339.42
       652.70000  8.23889e-11      4336.95
       652.80000  8.23889e-11      4332.83
       652.90000  8.23889e-11      4329.54
       653.00000  8.23889e-11      4325.42
       653.10000  8.23889e-11      4322.12
       653.20000  8.23889e-11      4318.83
       653.30000  8.23889e-11      4313.88
       653.40000  8.23889e-11      4308.94
       653.50000  8.21386e-11      4290.92
       653.60000  8.21386e-11      4285.17
       653.70000  8.21386e-11      4278.60
       653.80000  8.19471e-11      4261.25
       653.90000  8.19471e-11      4253.87
       654.00000  8.19471e-11      4245.68
       654.10000  8.19471e-11      4237.48
       654.20000  8.19471e-11      4227.65
       654.30000  8.19471e-11      4217.82
       654.40000  8.19471e-11      4207.98
       654.50000  4.54907e-11      2330.03
       654.60000  4.54907e-11      2323.66
       654.70000  4.54907e-11      2316.84
       654.80000  4.54907e-11      2310.02
       654.90000  4.54907e-11      2302.74
       655.00000  4.54907e-11      2295.00
       655.10000  4.54907e-11      2273.17
       655.20000  4.54907e-11      2252.24
       655.30000  4.54907e-11      2232.68
       655.40000  4.54907e-11      2214.48
       655.50000  4.90321e-11      2368.25
       655.60000  4.90321e-11      2351.09
       655.70000  4.90321e-11      2334.91
       655.80000  4.90321e-11      2320.20
       655.90000  4.90321e-11      2306.47
       656.00000  4.90321e-11      2294.21
       656.10000  4.90321e-11      2283.43
       656.20000  4.90321e-11      2273.62
       656.30000  4.89695e-11      2262.39
       656.40000  4.89695e-11      2255.05
       656.50000  9.77687e-11      4490.52
       656.60000  9.77687e-11      4481.72
       656.70000  9.77687e-11      4474.87
       656.80000  9.77687e-11      4470.96
       656.90000  9.77687e-11      4469.01
       657.00000  9.77687e-11      4469.99
       657.10000  9.77687e-11      4508.12
       657.20000  9.77687e-11      4545.27
       657.30000  9.77687e-11      4581.44
       657.40000  9.77687e-11      4616.64
       657.50000  1.24835e-10      5937.13
       657.60000  1.24835e-10      5979.58
       657.70000  1.24835e-10      6019.52
       657.80000  1.24835e-10      6058.22
       657.90000  1.24835e-10      6094.42
       658.00000  1.24835e-10      6130.63
       658.10000  1.24835e-10      6165.58
       658.20000  1.24835e-10      6198.04
       658.30000  1.24835e-10      6229.25
       658.40000  1.24835e-10      6259.21
       658.50000  1.14768e-10      5779.71
       658.60000  1.14768e-10      5804.96
       658.70000  1.14768e-10      5827.92
       658.80000  1.14384e-10      5831.31
       658.90000  1.14384e-10      5851.90
       659.00000  1.14384e-10      5870.20
       659.10000  1.14384e-10      5888.50
       659.20000  1.14384e-10      5905.66
       659.30000  1.14384e-10      5920.53
       659.40000  1.14384e-10      5934.25
       659.50000  5.88918e-11      3061.79
       659.60000  5.88918e-11      3067.68
       659.70000  5.88918e-11      3072.39
       659.80000  5.88918e-11      3077.10
       659.90000  5.88918e-11      3080.63
       660.00000  5.88918e-11      3083.58
       660.10000  5.88918e-11      3085.93
       660.20000  5.88918e-11      3087.11
       660.30000  5.88918e-11      3088.29
       660.40000  5.88918e-11      3088.29
       660.50000  7.16135e-11      3754.70
       660.60000  7.16135e-11      3753.27
       660.70000  7.16135e-11      3751.12
       660.80000  7.16135e-11      3747.54
       660.90000  7.16135e-11      3743.96
       661.00000  7.16135e-11      3738.94
       661.10000  7.16135e-11      3736.79
       661.20000  7.16135e-11      3733.93
       661.30000  7.10892e-11      3704.46
       661.40000  7.10892e-11      3702.33
       661.50000  8.58590e-12      446.896
       661.60000  8.58590e-12      446.724
       661.70000  8.58590e-12      446.467
       661.80000  8.58590e-12      446.295
       661.90000  8.58590e-12      446.123
       662.00000  8.58590e-12      445.951
       662.10000  8.58590e-12      445.780
       662.20000  8.58590e-12      445.608
       662.30000  8.58590e-12      445.522
       662.40000  8.58590e-12      445.436
       662.50000  1.12424e-11      583.030
       662.60000  1.12424e-11      583.030
       662.70000  1.12424e-11      582.918
       662.80000  1.12424e-11      582.805
       662.90000  1.12424e-11      582.805
       663.00000  1.12424e-11      582.805
       663.10000  1.12424e-11      583.255
       663.20000  1.12424e-11      583.592
       663.30000  1.12424e-11      584.042
       663.40000  1.12424e-11      584.379
       663.50000  1.34288e-12      69.8433
       663.60000  1.34288e-12      69.8836
       663.70000  1.34288e-12      69.9105
       663.80000  1.33184e-12      69.3756
       663.90000  1.33184e-12      69.4022
       664.00000  1.33184e-12      69.4155
       664.10000  1.33184e-12      69.4422
       664.20000  1.33184e-12      69.4555
       664.30000  1.33184e-12      69.4688
       664.40000  1.33184e-12      69.4821
       664.50000  4.13336e-11      2156.38
       664.60000  4.13336e-11      2156.38
       664.70000  4.13336e-11      2156.38
       664.80000  4.13336e-11      2156.38
       664.90000  4.13336e-11      2156.38
       665.00000  4.13336e-11      2155.96
       665.10000  4.13336e-11      2155.55
       665.20000  4.13336e-11      2155.14
       665.30000  4.13336e-11      2154.31
       665.40000  4.13336e-11      2153.48
       665.50000  1.37452e-11      715.849
       665.60000  1.37452e-11      715.575
       665.70000  1.37452e-11      715.162
       665.80000  1.37452e-11      714.887
       665.90000  1.37452e-11      714.475
       666.00000  1.37452e-11      713.925
       666.10000  1.37452e-11      713.513
       666.20000  1.37452e-11      712.963
       666.30000  1.36563e-11      707.808
       666.40000  1.36563e-11      707.262
       666.50000  3.12381e-11      1616.26
       666.60000  3.12381e-11      1614.70
       666.70000  3.12381e-11      1613.13
       666.80000  3.12381e-11      1611.57
       666.90000  3.12381e-11      1610.01
       667.00000  3.12381e-11      1608.14
       667.10000  3.12381e-11      1610.01
       667.20000  3.12381e-11      1611.57
       667.30000  3.12381e-11      1613.13
       667.40000  3.12381e-11      1614.70
       667.50000  5.79114e-12      299.634
       667.60000  5.79114e-12      299.865
       667.70000  5.79114e-12      300.097
       667.80000  5.79114e-12      300.271
       667.90000  5.79114e-12      300.444
       668.00000  5.79114e-12      300.618
       668.10000  5.79114e-12      300.792
       668.20000  5.79114e-12      300.908
       668.30000  5.79114e-12      301.024
       668.40000  5.79114e-12      301.082
       668.50000  1.12314e-12      58.4031
       668.60000  1.12314e-12      58.4143
       668.70000  1.12314e-12      58.4143
       668.80000  1.11669e-12      58.0792
       668.90000  1.11669e-12      58.0792
       669.00000  1.11669e-12      58.0680
       669.10000  1.11669e-12      57.9898
       669.20000  1.11669e-12      57.9117
       669.30000  1.11669e-12      57.8446
       669.40000  1.11669e-12      57.7776
       669.50000  7.29317e-11      3769.11
       669.60000  7.29317e-11      3764.74
       669.70000  7.29317e-11      3761.09
       669.80000  7.29317e-11      3757.44
       669.90000  7.29317e-11      3753.80
       670.00000  7.29317e-11      3750.88
       670.10000  7.29317e-11      3747.96
       670.20000  7.29317e-11      3745.04
       670.30000  7.29317e-11      3742.13
       670.40000  7.29317e-11      3739.94
       670.50000  1.90324e-11      975.412
       670.60000  1.90324e-11      974.841
       670.70000  1.90324e-11      974.461
       670.80000  1.90324e-11      974.080
       670.90000  1.90324e-11      973.699
       671.00000  1.90324e-11      973.509
       671.10000  1.90324e-11      973.128
       671.20000  1.90324e-11      973.128
       671.30000  1.89246e-11      967.426
       671.40000  1.89246e-11      967.426
       671.50000  1.02827e-11      525.654
       671.60000  1.02827e-11      525.654
       671.70000  1.02827e-11      525.654
       671.80000  1.02827e-11      525.757
       671.90000  1.02827e-11      525.860
       672.00000  1.02827e-11      526.065
       672.10000  1.02827e-11      526.271
       672.20000  1.02827e-11      526.477
       672.30000  1.02827e-11      526.682
       672.40000  1.02827e-11      526.991
       672.50000  1.72181e-11      882.945
       672.60000  1.72181e-11      883.462
       672.70000  1.72181e-11      883.978
       672.80000  1.72181e-11      884.667
       672.90000  1.72181e-11      885.356
       673.00000  1.72181e-11      886.216
       673.10000  1.72181e-11      885.872
       673.20000  1.72181e-11      885.528
       673.30000  1.72181e-11      885.183
       673.40000  1.72181e-11      885.011
       673.50000  2.34624e-11      1205.50
       673.60000  2.34624e-11      1205.27
       673.70000  2.34624e-11      1205.03
       673.80000  2.33165e-11      1197.07
       673.90000  2.33165e-11      1196.83
       674.00000  2.33165e-11      1196.60
       674.10000  2.33165e-11      1196.37
       674.20000  2.33165e-11      1196.14
       674.30000  2.33165e-11      1195.90
       674.40000  2.33165e-11      1195.67
       674.50000  1.52677e-11      782.777
       674.60000  1.52677e-11      782.777
       674.70000  1.52677e-11      782.625
       674.80000  1.52677e-11      782.625
       674.90000  1.52677e-11      782.472
       675.00000  1.52677e-11      782.472
       675.10000  1.52677e-11      782.625
       675.20000  1.52677e-11      782.777
       675.30000  1.52677e-11      782.930
       675.40000  1.52677e-11      783.083
       675.50000  4.21863e-11      2163.74
       675.60000  4.21863e-11      2164.16
       675.70000  4.21863e-11      2164.58
       675.80000  4.21863e-11      2164.58
       675.90000  4.21863e-11      2165.00
       676.00000  4.21863e-11      2165.00
       676.10000  4.21863e-11      2165.42
       676.20000  4.21863e-11      2165.42
       676.30000  4.18674e-11      2149.05
       676.40000  4.18674e-11      2149.05
       676.50000  1.01277e-11      519.959
       676.60000  1.01277e-11      519.959
       676.70000  1.01277e-11      519.959
       676.80000  1.01277e-11      519.857
       676.90000  1.01277e-11      519.857
       677.00000  1.01277e-11      519.857
       677.10000  1.01277e-11      519.857
       677.20000  1.01277e-11      519.756
       677.30000  1.01277e-11      519.756
       677.40000  1.01277e-11      519.655
       677.50000  1.76817e-11      907.248
       677.60000  1.76817e-11      907.071
       677.70000  1.76817e-11      907.071
       677.80000  1.76817e-11      906.895
       677.90000  1.76817e-11      906.718
       678.00000  1.76817e-11      906.541
       678.10000  1.76817e-11      906.364
       678.20000  1.76817e-11      906.187
       678.30000  1.76817e-11      906.010
       678.40000  1.76817e-11      905.834
       678.50000  8.13636e-13      41.6663
       678.60000  8.13636e-13      41.6582
       678.70000  8.13636e-13      41.6500
       678.80000  8.07504e-13      41.3200
       678.90000  8.07504e-13      41.3119
       679.00000  8.07504e-13      41.2957
       679.10000  8.07504e-13      41.2957
       679.20000  8.07504e-13      41.3038
       679.30000  8.07504e-13      41.3038
       679.40000  8.07504e-13      41.3038
       679.50000  1.57236e-11      804.264
       679.60000  1.57236e-11      804.264
       679.70000  1.57236e-11      804.264
       679.80000  1.57236e-11      804.264
       679.90000  1.57236e-11      804.264
       680.00000  1.57236e-11      804.107
       680.10000  1.57236e-11      804.107
       680.20000  1.57236e-11      804.107
       680.30000  1.57236e-11      803.950
       680.40000  1.57236e-11      803.950
       680.50000  2.35912e-11      1205.98
       680.60000  2.35912e-11      1205.98
       680.70000  2.35912e-11      1205.74
       680.80000  2.35912e-11      1205.51
       680.90000  2.35912e-11      1205.27
       681.00000  2.35912e-11      1205.27
       681.10000  2.35912e-11      1205.04
       681.20000  2.35912e-11      1204.80
       681.30000  2.33920e-11      1194.63
       681.40000  2.33920e-11      1194.40
       681.50000  3.87075e-11      1976.02
       681.60000  3.87075e-11      1975.63
       681.70000  3.87075e-11      1975.25
       681.80000  3.87075e-11      1974.47
       681.90000  3.87075e-11      1974.08
       682.00000  3.87075e-11      1973.70
       682.10000  3.87075e-11      1972.92
       682.20000  3.87075e-11      1972.15
       682.30000  3.87075e-11      1971.76
       682.40000  3.87075e-11      1970.99
       682.50000  8.19312e-12      417.030
       682.60000  8.19312e-12      416.866
       682.70000  8.19312e-12      416.702
       682.80000  8.19312e-12      416.538
       682.90000  8.19312e-12      416.293
       683.00000  8.19312e-12      416.129
       683.10000  8.19312e-12      415.965
       683.20000  8.19312e-12      415.719
       683.30000  8.19312e-12      415.473
       683.40000  8.19312e-12      415.228
       683.50000  6.74075e-12      341.486
       683.60000  6.74075e-12      341.284
       683.70000  6.74075e-12      341.082
       683.80000  6.67675e-12      337.576
       683.90000  6.67675e-12      337.376
       684.00000  6.67675e-12      337.176
       684.10000  6.67675e-12      336.909
       684.20000  6.67675e-12      336.708
       684.30000  6.67675e-12      336.441
       684.40000  6.67675e-12      336.241
       684.50000  5.27288e-12      265.331
       684.60000  5.27288e-12      265.121
       684.70000  5.27288e-12      264.910
       684.80000  5.27288e-12      264.699
       684.90000  5.27288e-12      264.435
       685.00000  5.27288e-12      264.224
       685.10000  5.27288e-12      264.435
       685.20000  5.27288e-12      264.699
       685.30000  5.27288e-12      264.910
       685.40000  5.27288e-12      265.068
       685.50000  6.28734e-12      316.316
       685.60000  6.28734e-12      316.568
       685.70000  6.28734e-12      316.756
       685.80000  6.28734e-12      316.945
       685.90000  6.28734e-12      317.133
       686.00000  6.28734e-12      317.322
       686.10000  6.28734e-12      317.511
       686.20000  6.28734e-12      317.636
       686.30000  6.22796e-12      314.823
       686.40000  6.22796e-12      314.948
       686.50000  7.55172e-12      382.042
       686.60000  7.55172e-12      382.193
       686.70000  7.55172e-12      382.344
       686.80000  7.55172e-12      382.419
       686.90000  7.55172e-12      382.570
       687.00000  7.55172e-12      382.646
       687.10000  7.55172e-12      382.721
       687.20000  7.55172e-12      382.721
       687.30000  7.55172e-12      382.721
       687.40000  7.55172e-12      382.721
       687.50000  3.29166e-11      1668.22
       687.60000  3.29166e-11      1668.22
       687.70000  3.29166e-11      1668.22
       687.80000  3.29166e-11      1668.22
       687.90000  3.29166e-11      1668.22
       688.00000  3.29166e-11      1667.89
       688.10000  3.29166e-11      1667.89
       688.20000  3.29166e-11      1667.89
       688.30000  3.29166e-11      1667.56
       688.40000  3.29166e-11      1667.56
       688.50000  3.73811e-12      189.335
       688.60000  3.73811e-12      189.298
       688.70000  3.73811e-12      189.298
       688.80000  3.70742e-12      187.707
       688.90000  3.70742e-12      187.670
       689.00000  3.70742e-12      187.633
       689.10000  3.70742e-12      187.596
       689.20000  3.70742e-12      187.558
       689.30000  3.70742e-12      187.521
       689.40000  3.70742e-12      187.484
       689.50000  1.31390e-11      664.306
       689.60000  1.31390e-11      664.175
       689.70000  1.31390e-11      663.912
       689.80000  1.31390e-11      663.780
       689.90000  1.31390e-11      663.649
       690.00000  1.31390e-11      663.386
       690.10000  1.31390e-11      663.123
       690.20000  1.31390e-11      662.992
       690.30000  1.31390e-11      662.729
       690.40000  1.31390e-11      662.467
       690.50000  1.07297e-11      540.885
       690.60000  1.07297e-11      540.671
       690.70000  1.07297e-11      540.456
       690.80000  1.07297e-11      540.241
       690.90000  1.07297e-11      540.027
       691.00000  1.07297e-11      539.812
       691.10000  1.07297e-11      540.027
       691.20000  1.07297e-11      540.134
       691.30000  1.06484e-11      536.256
       691.40000  1.06484e-11      536.362
       691.50000  9.49851e-13      47.8535
       691.60000  9.49851e-13      47.8725
       691.70000  9.49851e-13      47.8820
       691.80000  9.49851e-13      47.8915
       691.90000  9.49851e-13      47.9010
       692.00000  9.49851e-13      47.9010
       692.10000  9.49851e-13      47.9105
       692.20000  9.49851e-13      47.9200
       692.30000  9.49851e-13      47.9200
       692.40000  9.49851e-13      47.9200
       692.50000  3.80409e-12      191.955
       692.60000  3.80409e-12      191.955
       692.70000  3.80409e-12      191.955
       692.80000  3.80409e-12      191.955
       692.90000  3.80409e-12      191.955
       693.00000  3.80409e-12      191.917
       693.10000  3.80409e-12      191.917
       693.20000  3.80409e-12      191.879
       693.30000  3.80409e-12      191.840
       693.40000  3.80409e-12      191.802
       693.50000  1.30216e-11      656.420
       693.60000  1.30216e-11      656.289
       693.70000  1.30216e-11      656.159
       693.80000  1.29318e-11      651.504
       693.90000  1.29318e-11      651.246
       694.00000  1.29318e-11      651.116
       694.10000  1.29318e-11      650.987
       694.20000  1.29318e-11      650.728
       694.30000  1.29318e-11      650.599
       694.40000  1.29318e-11      650.340
       694.50000  1.15513e-11      580.683
       694.60000  1.15513e-11      580.567
       694.70000  1.15513e-11      580.336
       694.80000  1.15513e-11      580.105
       694.90000  1.15513e-11      579.874
       695.00000  1.15513e-11      579.643
       695.10000  1.15513e-11      579.412
       695.20000  1.15513e-11      579.181
       695.30000  1.15513e-11      578.834
       695.40000  1.15513e-11      578.603
       695.50000  1.57506e-11      788.632
       695.60000  1.57506e-11      788.159
       695.70000  1.57506e-11      787.844
       695.80000  1.57506e-11      787.372
       695.90000  1.57506e-11      786.899
       696.00000  1.57506e-11      786.584
       696.10000  1.57506e-11      786.112
       696.20000  1.57506e-11      785.639
       696.30000  1.56584e-11      780.573
       696.40000  1.56584e-11      780.103
       696.50000  7.16352e-12      356.672
       696.60000  7.16352e-12      356.457
       696.70000  7.16352e-12      356.170
       696.80000  7.16352e-12      355.955
       696.90000  7.16352e-12      355.740
       697.00000  7.16352e-12      355.454
       697.10000  7.16352e-12      355.955
       697.20000  7.16352e-12      356.314
       697.30000  7.16352e-12      356.743
       697.40000  7.16352e-12      357.102
       697.50000  1.00380e-11      500.895
       697.60000  1.00380e-11      501.297
       697.70000  1.00380e-11      501.698
       697.80000  1.00380e-11      501.999
       697.90000  1.00380e-11      502.300
       698.00000  1.00380e-11      502.501
       698.10000  1.00380e-11      502.702
       698.20000  1.00380e-11      502.903
       698.30000  1.00380e-11      503.003
       698.40000  1.00380e-11      503.104
       698.50000  1.47573e-12      73.9782
       698.60000  1.47573e-12      73.9782
       698.70000  1.47573e-12      73.9634
       698.80000  1.46668e-12      73.4953
       698.90000  1.46668e-12      73.4806
       699.00000  1.46668e-12      73.4513
       699.10000  1.46668e-12      73.3193
       699.20000  1.46668e-12      73.1726
       699.30000  1.46668e-12      73.0553
       699.40000  1.46668e-12      72.9233
       699.50000  1.38597e-11      687.997
       699.60000  1.38597e-11      686.889
       699.70000  1.38597e-11      685.919
       699.80000  1.38597e-11      684.948
       699.90000  1.38597e-11      683.978
       700.00000  1.38597e-11      683.147
       700.10000  1.38597e-11      682.315
       700.20000  1.38597e-11      681.483
       700.30000  1.38597e-11      680.790
       700.40000  1.38597e-11      680.097
       700.50000  1.69825e-11      832.482
       700.60000  1.69825e-11      831.803
       700.70000  1.69825e-11      831.123
       700.80000  1.69825e-11      830.614
       700.90000  1.69825e-11      830.104
       701.00000  1.69825e-11      829.595
       701.10000  1.69825e-11      829.425
       701.20000  1.69825e-11      829.255
       701.30000  1.68567e-11      822.943
       701.40000  1.68567e-11      822.943
       701.50000  1.19085e-11      581.375
       701.60000  1.19085e-11      581.375
       701.70000  1.19085e-11      581.375
       701.80000  1.19085e-11      581.494
       701.90000  1.19085e-11      581.494
       702.00000  1.19085e-11      581.613
       702.10000  1.19085e-11      581.851
       702.20000  1.19085e-11      581.970
       702.30000  1.19085e-11      582.208
       702.40000  1.19085e-11      582.328
       702.50000  6.17187e-17   0.00301928
       702.60000  6.17187e-17   0.00302113
       702.70000  6.17187e-17   0.00302236
       702.80000  6.17187e-17   0.00302421
       702.90000  6.17187e-17   0.00302607
       703.00000  6.17187e-17   0.00302792
       703.10000  6.17187e-17   0.00303347
       703.20000  6.17187e-17   0.00303903
       703.30000  6.17187e-17   0.00304396
       703.40000  6.17187e-17   0.00304890
       703.50000  3.53035e-12      174.646
       703.60000  3.53035e-12      174.929
       703.70000  3.53035e-12      175.141
       703.80000  3.49758e-12      173.760
       703.90000  3.49758e-12      173.970
       704.00000  3.49758e-12      174.145
       704.10000  3.49758e-12      174.354
       704.20000  3.49758e-12      174.529
       704.30000  3.49758e-12      174.669
       704.40000  3.49758e-12      174.809
       704.50000  7.90096e-12      395.206
       704.60000  7.90096e-12      395.522
       704.70000  7.90096e-12      395.759
       704.80000  7.90096e-12      395.917
       704.90000  7.90096e-12      396.154
       705.00000  7.90096e-12      396.312
       705.10000  7.90096e-12      396.391
       705.20000  7.90096e-12      396.470
       705.30000  7.90096e-12      396.549
       705.40000  7.90096e-12      396.628
       705.50000  1.96111e-12      98.4478
       705.60000  1.96111e-12      98.4478
       705.70000  1.96111e-12      98.4282
       705.80000  1.96111e-12      98.4086
       705.90000  1.96111e-12      98.3889
       706.00000  1.96111e-12      98.3497
       706.10000  1.96111e-12      98.3105
       706.20000  1.96111e-12      98.2517
       706.30000  1.94177e-12      97.2243
       706.40000  1.94177e-12      97.1660
       706.50000  1.02485e-11      512.424
       706.60000  1.02485e-11      512.014
       706.70000  1.02485e-11      511.604
       706.80000  1.02485e-11      511.092
       706.90000  1.02485e-11      510.580
       707.00000  1.02485e-11      510.067
       707.10000  1.02485e-11      509.657
       707.20000  1.02485e-11      509.350
       707.30000  1.02485e-11      508.940
       707.40000  1.02485e-11      508.632
       707.50000  7.02280e-12      348.331
       707.60000  7.02280e-12      348.120
       707.70000  7.02280e-12      347.980
       707.80000  7.02280e-12      347.769
       707.90000  7.02280e-12      347.628
       708.00000  7.02280e-12      347.488
       708.10000  7.02280e-12      347.348
       708.20000  7.02280e-12      347.207
       708.30000  7.02280e-12      347.067
       708.40000  7.02280e-12      346.926
       708.50000  2.47367e-12      122.175
       708.60000  2.47367e-12      122.125
       708.70000  2.47367e-12      122.100
       708.80000  2.44534e-12      120.677
       708.90000  2.44534e-12      120.653
       709.00000  2.44534e-12      120.653
       709.10000  2.44534e-12      120.702
       709.20000  2.44534e-12      120.751
       709.30000  2.44534e-12      120.775
       709.40000  2.44534e-12      120.824
       709.50000  2.16585e-12      107.036
       709.60000  2.16585e-12      107.080
       709.70000  2.16585e-12      107.101
       709.80000  2.16585e-12      107.123
       709.90000  2.16585e-12      107.145
       710.00000  2.16585e-12      107.166
       710.10000  2.16585e-12      107.188
       710.20000  2.16585e-12      107.210
       710.30000  2.16585e-12      107.210
       710.40000  2.16585e-12      107.231
       710.50000  1.88668e-12      93.4094
       710.60000  1.88668e-12      93.4094
       710.70000  1.88668e-12      93.4094
       710.80000  1.88668e-12      93.4094
       710.90000  1.88668e-12      93.4094
       711.00000  1.88668e-12      93.4094
       711.10000  1.88668e-12      93.4094
       711.20000  1.88668e-12      93.3905
       711.30000  1.85912e-12      92.0262
       711.40000  1.85912e-12      92.0076
       711.50000  6.48750e-12      321.001
       711.60000  6.48750e-12      320.937
       711.70000  6.48750e-12      320.872
       711.80000  6.48750e-12      320.807
       711.90000  6.48750e-12      320.742
       712.00000  6.48750e-12      320.612
       712.10000  6.48750e-12      320.547
       712.20000  6.48750e-12      320.418
       712.30000  6.48750e-12      320.353
       712.40000  6.48750e-12      320.223
       712.50000  5.88510e-12      290.371
       712.60000  5.88510e-12      290.253
       712.70000  5.88510e-12      290.076
       712.80000  5.88510e-12      289.959
       712.90000  5.88510e-12      289.841
       713.00000  5.88510e-12      289.664
       713.10000  5.88510e-12      289.664
       713.20000  5.88510e-12      289.664
       713.30000  5.88510e-12      289.664
       713.40000  5.88510e-12      289.606
       713.50000  1.26857e-11      624.262
       713.60000  1.26857e-11      624.262
       713.70000  1.26857e-11      624.135
       713.80000  1.25128e-11      615.628
       713.90000  1.25128e-11      615.503
       714.00000  1.25128e-11      615.503
       714.10000  1.25128e-11      615.378
       714.20000  1.25128e-11      615.253
       714.30000  1.25128e-11      615.253
       714.40000  1.25128e-11      615.128
       714.50000  4.28807e-12      210.759
       714.60000  4.28807e-12      210.716
       714.70000  4.28807e-12      210.716
       714.80000  4.28807e-12      210.673
       714.90000  4.28807e-12      210.630
       715.00000  4.28807e-12      210.587
       715.10000  4.28807e-12      210.544
       715.20000  4.28807e-12      210.544
       715.30000  4.28807e-12      210.544
       715.40000  4.28807e-12      210.501
       715.50000  2.28010e-13      11.1907
       715.60000  2.28010e-13      11.1884
       715.70000  2.28010e-13      11.1862
       715.80000  2.28010e-13      11.1839
       715.90000  2.28010e-13      11.1816
       716.00000  2.28010e-13      11.1770
       716.10000  2.28010e-13      11.1748
       716.20000  2.28010e-13      11.1702
       716.30000  2.24963e-13      11.0165
       716.40000  2.24963e-13      11.0120
       716.50000  7.73356e-12      378.403
       716.60000  7.73356e-12      378.249
       716.70000  7.73356e-12      378.094
       716.80000  7.73356e-12      377.862
       716.90000  7.73356e-12      377.707
       717.00000  7.73356e-12      377.475
       717.10000  7.73356e-12      377.243
       717.20000  7.73356e-12      377.011
       717.30000  7.73356e-12      376.779
       717.40000  7.73356e-12      376.547
       717.50000  4.94215e-12      240.485
       717.60000  4.94215e-12      240.287
       717.70000  4.94215e-12      240.139
       717.80000  4.94215e-12      239.941
       717.90000  4.94215e-12      239.744
       718.00000  4.94215e-12      239.546
       718.10000  4.94215e-12      239.348
       718.20000  4.94215e-12      239.151
       718.30000  4.94215e-12      238.953
       718.40000  4.94215e-12      238.706
       718.50000  9.13375e-12      440.795
       718.60000  9.13375e-12      440.338
       718.70000  9.13375e-12      439.882
       718.80000  9.02407e-12      434.148
       718.90000  9.02407e-12      433.697
       719.00000  9.02407e-12      433.246
       719.10000  9.02407e-12      433.246
       719.20000  9.02407e-12      433.246
       719.30000  9.02407e-12      433.246
       719.40000  9.02407e-12      433.336
       719.50000  1.02903e-11      494.142
       719.60000  1.02903e-11      494.245
       719.70000  1.02903e-11      494.245
       719.80000  1.02903e-11      494.348
       719.90000  1.02903e-11      494.451
       720.00000  1.02903e-11      494.656
       720.10000  1.02903e-11      494.759
       720.20000  1.02903e-11      494.862
       720.30000  1.02903e-11      495.068
       720.40000  1.02903e-11      495.171
       720.50000  7.87617e-12      379.159
       720.60000  7.87617e-12      379.316
       720.70000  7.87617e-12      379.474
       720.80000  7.87617e-12      379.631
       720.90000  7.87617e-12      379.867
       721.00000  7.87617e-12      380.025
       721.10000  7.87617e-12      380.419
       721.20000  7.87617e-12      380.813
       721.30000  7.78734e-12      376.907
       721.40000  7.78734e-12      377.219
       721.50000  8.20907e-12      398.058
       721.60000  8.20907e-12      398.386
       721.70000  8.20907e-12      398.714
       721.80000  8.20907e-12      399.125
       721.90000  8.20907e-12      399.453
       722.00000  8.20907e-12      399.700
       722.10000  8.20907e-12      400.028
       722.20000  8.20907e-12      400.356
       722.30000  8.20907e-12      400.603
       722.40000  8.20907e-12      400.849
       722.50000  7.99767e-12      390.766
       722.60000  7.99767e-12      391.086
       722.70000  7.99767e-12      391.246
       722.80000  7.99767e-12      391.486
       722.90000  7.99767e-12      391.726
       723.00000  7.99767e-12      391.886
       723.10000  7.99767e-12      392.126
       723.20000  7.99767e-12      392.286
       723.30000  7.99767e-12      392.446
       723.40000  7.99767e-12      392.605
       723.50000  7.10494e-12      348.924
       723.60000  7.10494e-12      348.995
       723.70000  7.10494e-12      349.137
       723.80000  7.02474e-12      345.266
       723.90000  7.02474e-12      345.336
       724.00000  7.02474e-12      345.406
       724.10000  7.02474e-12      345.477
       724.20000  7.02474e-12      345.547
       724.30000  7.02474e-12      345.617
       724.40000  7.02474e-12      345.687
       724.50000  1.77585e-11      873.895
       724.60000  1.77585e-11      873.895
       724.70000  1.77585e-11      873.895
       724.80000  1.77585e-11      873.895
       724.90000  1.77585e-11      873.895
       725.00000  1.77585e-11      873.895
       725.10000  1.77585e-11      874.250
       725.20000  1.77585e-11      874.605
       725.30000  1.77585e-11      874.783
       725.40000  1.77585e-11      875.138
       725.50000  1.79938e-11      886.914
       725.60000  1.79938e-11      887.094
       725.70000  1.79938e-11      887.094
       725.80000  1.79938e-11      887.274
       725.90000  1.79938e-11      887.274
       726.00000  1.79938e-11      887.274
       726.10000  1.79938e-11      887.274
       726.20000  1.79938e-11      887.274
       726.30000  1.77931e-11      877.202
       726.40000  1.77931e-11      877.024
       726.50000  1.91655e-11      944.478
       726.60000  1.91655e-11      944.286
       726.70000  1.91655e-11      944.094
       726.80000  1.91655e-11      943.711
       726.90000  1.91655e-11      943.328
       727.00000  1.91655e-11      942.944
       727.10000  1.91655e-11      941.603
       727.20000  1.91655e-11      940.261
       727.30000  1.91655e-11      938.920
       727.40000  1.91655e-11      937.770
       727.50000  2.68649e-11      1312.89
       727.60000  2.68649e-11      1311.28
       727.70000  2.68649e-11      1309.93
       727.80000  2.68649e-11      1308.59
       727.90000  2.68649e-11      1307.25
       728.00000  2.68649e-11      1306.17
       728.10000  2.68649e-11      1305.10
       728.20000  2.68649e-11      1304.02
       728.30000  2.68649e-11      1302.95
       728.40000  2.68649e-11      1302.14
       728.50000  3.75437e-11      1818.61
       728.60000  3.75437e-11      1817.86
       728.70000  3.75437e-11      1816.74
       728.80000  3.71250e-11      1796.11
       728.90000  3.71250e-11      1795.36
       729.00000  3.71250e-11      1794.99
       729.10000  3.71250e-11      1794.62
       729.20000  3.71250e-11      1794.25
       729.30000  3.71250e-11      1794.25
       729.40000  3.71250e-11      1793.88
       729.50000  5.24789e-11      2536.31
       729.60000  5.24789e-11      2536.31
       729.70000  5.24789e-11      2536.83
       729.80000  5.24789e-11      2537.36
       729.90000  5.24789e-11      2538.41
       730.00000  5.24789e-11      2539.46
       730.10000  5.24789e-11      2540.51
       730.20000  5.24789e-11      2541.55
       730.30000  5.24789e-11      2543.13
       730.40000  5.24789e-11      2544.70
       730.50000  6.18653e-11      3001.70
       730.60000  6.18653e-11      3004.18
       730.70000  6.18653e-11      3006.65
       730.80000  6.18653e-11      3009.13
       730.90000  6.18653e-11      3012.22
       731.00000  6.18653e-11      3015.31
       731.10000  6.18653e-11      3014.69
       731.20000  6.18653e-11      3014.08
       731.30000  6.10984e-11      2976.10
       731.40000  6.10984e-11      2976.10
       731.50000  8.40442e-11      4092.95
       731.60000  8.40442e-11      4092.11
       731.70000  8.40442e-11      4091.27
       731.80000  8.40442e-11      4091.27
       731.90000  8.40442e-11      4090.43
       732.00000  8.40442e-11      4089.59
       732.10000  8.40442e-11      4088.75
       732.20000  8.40442e-11      4087.91
       732.30000  8.40442e-11      4087.91
       732.40000  8.40442e-11      4087.07
       732.50000  1.77508e-10      8630.43
       732.60000  1.77508e-10      8628.65
       732.70000  1.77508e-10      8626.88
       732.80000  1.77508e-10      8625.10
       732.90000  1.77508e-10      8623.33
       733.00000  1.77508e-10      8621.55
       733.10000  1.77508e-10      8619.78
       733.20000  1.77508e-10      8616.23
       733.30000  1.77508e-10      8614.45
       733.40000  1.77508e-10      8610.90
       733.50000  8.64569e-11      4193.16
       733.60000  8.64569e-11      4192.30
       733.70000  8.64569e-11      4190.57
       733.80000  8.52706e-11      4132.21
       733.90000  8.52706e-11      4131.36
       734.00000  8.52706e-11      4130.51
       734.10000  8.52706e-11      4129.66
       734.20000  8.52706e-11      4128.80
       734.30000  8.52706e-11      4127.95
       734.40000  8.52706e-11      4127.95
       734.50000  2.42091e-10      11717.2
       734.60000  2.42091e-10      11714.8
       734.70000  2.42091e-10      11714.8
       734.80000  2.42091e-10      11712.4
       734.90000  2.42091e-10      11712.4
       735.00000  2.42091e-10      11709.9
       735.10000  2.42091e-10      11709.9
       735.20000  2.42091e-10      11709.9
       735.30000  2.42091e-10      11709.9
       735.40000  2.42091e-10      11707.5
       735.50000  8.30412e-11      4015.87
       735.60000  8.30412e-11      4015.87
       735.70000  8.30412e-11      4015.87
       735.80000  8.30412e-11      4016.70
       735.90000  8.30412e-11      4016.70
       736.00000  8.30412e-11      4016.70
       736.10000  8.30412e-11      4016.70
       736.20000  8.30412e-11      4017.54
       736.30000  8.17339e-11      3954.29
       736.40000  8.17339e-11      3955.10
       736.50000  4.90632e-10      23741.7
       736.60000  4.90632e-10      23746.6
       736.70000  4.90632e-10      23751.5
       736.80000  4.90632e-10      23751.5
       736.90000  4.90632e-10      23756.4
       737.00000  4.90632e-10      23761.3
       737.10000  4.90632e-10      23736.8
       737.20000  4.90632e-10      23707.4
       737.30000  4.90632e-10      23682.8
       737.40000  4.90632e-10      23658.3
       737.50000  9.74881e-10      46950.3
       737.60000  9.74881e-10      46901.5
       737.70000  9.74881e-10      46852.8
       737.80000  9.74881e-10      46804.0
       737.90000  9.74881e-10      46765.0
       738.00000  9.74881e-10      46716.3
       738.10000  9.74881e-10      46667.5
       738.20000  9.74881e-10      46618.8
       738.30000  9.74881e-10      46579.8
       738.40000  9.74881e-10      46540.8
       738.50000  1.31409e-09      62668.8
       738.60000  1.31409e-09      62616.2
       738.70000  1.31409e-09      62563.7
       738.80000  1.29148e-09      61435.5
       738.90000  1.29148e-09      61383.9
       739.00000  1.29148e-09      61332.2
       739.10000  1.29148e-09      61228.9
       739.20000  1.29148e-09      61138.5
       739.30000  1.29148e-09      61061.0
       739.40000  1.29148e-09      60983.5
       739.50000  2.50360e-09      118070.
       739.60000  2.50360e-09      117945.
       739.70000  2.50360e-09      117845.
       739.80000  2.50360e-09      117719.
       739.90000  2.50360e-09      117644.
       740.00000  2.50360e-09      117544.
       740.10000  2.50360e-09      117494.
       740.20000  2.50360e-09      117419.
       740.30000  2.50360e-09      117369.
       740.40000  2.50360e-09      117344.
       740.50000  4.71434e-09      220914.
       740.60000  4.71434e-09      220867.
       740.70000  4.71434e-09      220867.
       740.80000  4.71434e-09      220867.
       740.90000  4.71434e-09      220914.
       741.00000  4.71434e-09      220961.
       741.10000  4.71434e-09      221056.
       741.20000  4.71434e-09      221150.
       741.30000  4.63285e-09      217420.
       741.40000  4.63285e-09      217559.
       741.50000  9.72297e-09      456882.
       741.60000  9.72297e-09      457271.
       741.70000  9.72297e-09      457758.
       741.80000  9.72297e-09      458146.
       741.90000  9.72297e-09      458730.
       742.00000  9.72297e-09      459216.
       742.10000  9.72297e-09      459799.
       742.20000  9.72297e-09      460480.
       742.30000  9.72297e-09      461161.
       742.40000  9.72297e-09      461841.
       742.50000  2.54817e-08  1.21242e+06
       742.60000  2.54817e-08  1.21446e+06
       742.70000  2.54817e-08  1.21675e+06
       742.80000  2.54817e-08  1.21905e+06
       742.90000  2.54817e-08  1.22159e+06
       743.00000  2.54817e-08  1.22414e+06
       743.10000  2.54817e-08  1.22363e+06
       743.20000  2.54817e-08  1.22338e+06
       743.30000  2.54817e-08  1.22312e+06
       743.40000  2.54817e-08  1.22261e+06
       743.50000  7.07060e-08  3.39177e+06
       743.60000  7.07060e-08  3.39106e+06
       743.70000  7.07060e-08  3.39035e+06
       743.80000  6.96147e-08  3.33733e+06
       743.90000  6.96147e-08  3.33663e+06
       744.00000  6.96147e-08  3.33594e+06
       744.10000  6.96147e-08  3.33594e+06
       744.20000  6.96147e-08  3.33524e+06
       744.30000  6.96147e-08  3.33524e+06
       744.40000  6.96147e-08  3.33524e+06
       744.50000  1.86614e-07  8.93883e+06
       744.60000  1.86614e-07  8.93883e+06
       744.70000  1.86614e-07  8.93883e+06
       744.80000  1.86614e-07  8.93883e+06
       744.90000  1.86614e-07  8.94069e+06
       745.00000  1.86614e-07  8.94069e+06
       745.10000  1.86614e-07  8.94629e+06
       745.20000  1.86614e-07  8.95189e+06
       745.30000  1.86614e-07  8.95562e+06
       745.40000  1.86614e-07  8.96122e+06
       745.50000  5.73684e-07  2.75598e+07
       745.60000  5.73684e-07  2.75713e+07
       745.70000  5.73684e-07  2.75827e+07
       745.80000  5.73684e-07  2.75942e+07
       745.90000  5.73684e-07  2.75999e+07
       746.00000  5.73684e-07  2.76114e+07
       746.10000  5.73684e-07  2.76172e+07
       746.20000  5.73684e-07  2.76229e+07
       746.30000  5.67097e-07  2.73114e+07
       746.40000  5.67097e-07  2.73171e+07
       746.50000  2.05311e-06  9.89186e+07
       746.60000  2.05311e-06  9.89186e+07
       746.70000  2.05311e-06  9.89391e+07
       746.80000  2.05311e-06  9.89391e+07
       746.90000  2.05311e-06  9.89391e+07
       747.00000  2.05311e-06  9.89391e+07
       747.10000  2.05311e-06  9.88775e+07
       747.20000  2.05311e-06  9.88365e+07
       747.30000  2.05311e-06  9.87954e+07
       747.40000  2.05311e-06  9.87544e+07
       747.50000  5.16485e-06  2.48326e+08
       747.60000  5.16485e-06  2.48222e+08
       747.70000  5.16485e-06  2.48119e+08
       747.80000  5.16485e-06  2.48016e+08
       747.90000  5.16485e-06  2.47913e+08
       748.00000  5.16485e-06  2.47809e+08
       748.10000  5.16485e-06  2.47758e+08
       748.20000  5.16485e-06  2.47654e+08
       748.30000  5.16485e-06  2.47551e+08
       748.40000  5.16485e-06  2.47499e+08
       748.50000  6.04061e-06  2.89345e+08
       748.60000  6.04061e-06  2.89225e+08
       748.70000  6.04061e-06  2.89164e+08
       748.80000  5.97164e-06  2.85743e+08
       748.90000  5.97164e-06  2.85683e+08
       749.00000  5.97164e-06  2.85623e+08
       749.10000  5.97164e-06  2.85504e+08
       749.20000  5.97164e-06  2.85444e+08
       749.30000  5.97164e-06  2.85385e+08
       749.40000  5.97164e-06  2.85325e+08
       749.50000  6.18821e-06  2.95611e+08
       749.60000  6.18821e-06  2.95549e+08
       749.70000  6.18821e-06  2.95425e+08
       749.80000  6.18821e-06  2.95363e+08
       749.90000  6.18821e-06  2.95363e+08
       750.00000  6.18821e-06  2.95301e+08
       750.10000  6.18821e-06  2.95240e+08
       750.20000  6.18821e-06  2.95178e+08
       750.30000  6.18821e-06  2.95116e+08
       750.40000  6.18821e-06  2.95116e+08
       750.50000  5.84367e-06  2.78626e+08
       750.60000  5.84367e-06  2.78568e+08
       750.70000  5.84367e-06  2.78568e+08
       750.80000  5.84367e-06  2.78509e+08
       750.90000  5.84367e-06  2.78509e+08
       751.00000  5.84367e-06  2.78451e+08
       751.10000  5.84367e-06  2.78451e+08
       751.20000  5.84367e-06  2.78451e+08
       751.30000  5.76872e-06  2.74822e+08
       751.40000  5.76872e-06  2.74822e+08
       751.50000  5.93316e-06  2.82656e+08
       751.60000  5.93316e-06  2.82656e+08
       751.70000  5.93316e-06  2.82656e+08
       751.80000  5.93316e-06  2.82656e+08
       751.90000  5.93316e-06  2.82656e+08
       752.00000  5.93316e-06  2.82656e+08
       752.10000  5.93316e-06  2.82656e+08
       752.20000  5.93316e-06  2.82656e+08
       752.30000  5.93316e-06  2.82656e+08
       752.40000  5.93316e-06  2.82656e+08
       752.50000  6.03999e-06  2.87805e+08
       752.60000  6.03999e-06  2.87805e+08
       752.70000  6.03999e-06  2.87805e+08
       752.80000  6.03999e-06  2.87866e+08
       752.90000  6.03999e-06  2.87866e+08
       753.00000  6.03999e-06  2.87926e+08
       753.10000  6.03999e-06  2.87926e+08
       753.20000  6.03999e-06  2.87926e+08
       753.30000  6.03999e-06  2.87926e+08
       753.40000  6.03999e-06  2.87926e+08
       753.50000  6.12579e-06  2.92017e+08
       753.60000  6.12579e-06  2.92017e+08
       753.70000  6.12579e-06  2.92017e+08
       753.80000  6.03957e-06  2.87906e+08
       753.90000  6.03957e-06  2.87906e+08
       754.00000  6.03957e-06  2.87906e+08
       754.10000  6.03957e-06  2.87906e+08
       754.20000  6.03957e-06  2.87846e+08
       754.30000  6.03957e-06  2.87846e+08
       754.40000  6.03957e-06  2.87846e+08
       754.50000  5.68326e-06  2.70864e+08
       754.60000  5.68326e-06  2.70864e+08
       754.70000  5.68326e-06  2.70807e+08
       754.80000  5.68326e-06  2.70807e+08
       754.90000  5.68326e-06  2.70750e+08
       755.00000  5.68326e-06  2.70750e+08
       755.10000  5.68326e-06  2.70694e+08
       755.20000  5.68326e-06  2.70694e+08
       755.30000  5.68326e-06  2.70637e+08
       755.40000  5.68326e-06  2.70637e+08
       755.50000  5.26123e-06  2.50487e+08
       755.60000  5.26123e-06  2.50434e+08
       755.70000  5.26123e-06  2.50434e+08
       755.80000  5.26123e-06  2.50382e+08
       755.90000  5.26123e-06  2.50329e+08
       756.00000  5.26123e-06  2.50329e+08
       756.10000  5.26123e-06  2.50277e+08
       756.20000  5.26123e-06  2.50224e+08
       756.30000  5.18554e-06  2.46572e+08
       756.40000  5.18554e-06  2.46572e+08
       756.50000  4.42621e-06  2.10422e+08
       756.60000  4.42621e-06  2.10378e+08
       756.70000  4.42621e-06  2.10334e+08
       756.80000  4.42621e-06  2.10334e+08
       756.90000  4.42621e-06  2.10289e+08
       757.00000  4.42621e-06  2.10245e+08
       757.10000  4.42621e-06  2.10201e+08
       757.20000  4.42621e-06  2.10157e+08
       757.30000  4.42621e-06  2.10157e+08
       757.40000  4.42621e-06  2.10112e+08
       757.50000  2.06937e-06  9.82124e+07
       757.60000  2.06937e-06  9.81917e+07
       757.70000  2.06937e-06  9.81710e+07
       757.80000  2.06937e-06  9.81503e+07
       757.90000  2.06937e-06  9.81296e+07
       758.00000  2.06937e-06  9.81296e+07
       758.10000  2.06937e-06  9.81089e+07
       758.20000  2.06937e-06  9.80882e+07
       758.30000  2.06937e-06  9.80675e+07
       758.40000  2.06937e-06  9.80468e+07
       758.50000  4.94963e-07  2.34464e+07
       758.60000  4.94963e-07  2.34414e+07
       758.70000  4.94963e-07  2.34365e+07
       758.80000  4.86204e-07  2.30169e+07
       758.90000  4.86204e-07  2.30120e+07
       759.00000  4.86204e-07  2.30072e+07
       759.10000  4.86204e-07  2.30072e+07
       759.20000  4.86204e-07  2.30023e+07
       759.30000  4.86204e-07  2.30023e+07
       759.40000  4.86204e-07  2.29974e+07
       759.50000  1.57053e-07  7.42860e+06
       759.60000  1.57053e-07  7.42860e+06
       759.70000  1.57053e-07  7.42703e+06
       759.80000  1.57053e-07  7.42703e+06
       759.90000  1.57053e-07  7.42703e+06
       760.00000  1.57053e-07  7.42703e+06
       760.10000  1.57053e-07  7.42703e+06
       760.20000  1.57053e-07  7.42703e+06
       760.30000  1.57053e-07  7.42860e+06
       760.40000  1.57053e-07  7.42860e+06
       760.50000  4.78529e-08  2.26344e+06
       760.60000  4.78529e-08  2.26392e+06
       760.70000  4.78529e-08  2.26392e+06
       760.80000  4.78529e-08  2.26440e+06
       760.90000  4.78529e-08  2.26440e+06
       761.00000  4.78529e-08  2.26488e+06
       761.10000  4.78529e-08  2.26679e+06
       761.20000  4.78529e-08  2.26823e+06
       761.30000  4.68667e-08  2.22289e+06
       761.40000  4.68667e-08  2.22429e+06
       761.50000  1.75168e-08      831872.
       761.60000  1.75168e-08      832222.
       761.70000  1.75168e-08      832572.
       761.80000  1.75168e-08      832923.
       761.90000  1.75168e-08      833273.
       762.00000  1.75168e-08      833448.
       762.10000  1.75168e-08      833799.
       762.20000  1.75168e-08      833974.
       762.30000  1.75168e-08      834149.
       762.40000  1.75168e-08      834149.
       762.50000  1.03769e-08      494149.
       762.60000  1.03769e-08      494253.
       762.70000  1.03769e-08      494253.
       762.80000  1.03769e-08      494149.
       762.90000  1.03769e-08      494149.
       763.00000  1.03769e-08      494045.
       763.10000  1.03769e-08      493941.
       763.20000  1.03769e-08      493838.
       763.30000  1.03769e-08      493630.
       763.40000  1.03769e-08      493422.
       763.50000  5.43072e-09      258122.
       763.60000  5.43072e-09      258013.
       763.70000  5.43072e-09      257905.
       763.80000  5.29493e-09      251298.
       763.90000  5.29493e-09      251139.
       764.00000  5.29493e-09      250980.
       764.10000  5.29493e-09      250821.
       764.20000  5.29493e-09      250609.
       764.30000  5.29493e-09      250397.
       764.40000  5.29493e-09      250186.
       764.50000  2.69811e-09      127378.
       764.60000  2.69811e-09      127270.
       764.70000  2.69811e-09      127135.
       764.80000  2.69811e-09      127000.
       764.90000  2.69811e-09      126865.
       765.00000  2.69811e-09      126703.
       765.10000  2.69811e-09      126407.
       765.20000  2.69811e-09      126110.
       765.30000  2.69811e-09      125840.
       765.40000  2.69811e-09      125570.
       765.50000  1.44224e-09      66992.2
       765.60000  1.44224e-09      66876.8
       765.70000  1.44224e-09      66747.0
       765.80000  1.44224e-09      66646.1
       765.90000  1.44224e-09      66545.1
       766.00000  1.44224e-09      66444.1
       766.10000  1.44224e-09      66357.6
       766.20000  1.44224e-09      66271.1
       766.30000  1.40664e-09      64564.7
       766.40000  1.40664e-09      64508.4
       766.50000  9.95356e-10      45607.2
       766.60000  9.95356e-10      45567.4
       766.70000  9.95356e-10      45547.5
       766.80000  9.95356e-10      45517.6
       766.90000  9.95356e-10      45497.7
       767.00000  9.95356e-10      45487.8
       767.10000  9.95356e-10      45537.5
       767.20000  9.95356e-10      45597.2
       767.30000  9.95356e-10      45647.0
       767.40000  9.95356e-10      45696.8
       767.50000  5.67458e-10      26080.4
       767.60000  5.67458e-10      26108.8
       767.70000  5.67458e-10      26137.1
       767.80000  5.67458e-10      26159.8
       767.90000  5.67458e-10      26188.2
       768.00000  5.67458e-10      26210.9
       768.10000  5.67458e-10      26233.6
       768.20000  5.67458e-10      26256.3
       768.30000  5.67458e-10      26273.3
       768.40000  5.67458e-10      26296.0
       768.50000  2.97712e-10      13804.9
       768.60000  2.97712e-10      13813.8
       768.70000  2.97712e-10      13822.8
       768.80000  2.90942e-10      13517.1
       768.90000  2.90942e-10      13525.9
       769.00000  2.90942e-10      13531.7
       769.10000  2.90942e-10      13540.4
       769.20000  2.90942e-10      13546.2
       769.30000  2.90942e-10      13552.1
       769.40000  2.90942e-10      13557.9
       769.50000  2.06315e-10      9616.33
       769.60000  2.06315e-10      9620.45
       769.70000  2.06315e-10      9622.52
       769.80000  2.06315e-10      9626.64
       769.90000  2.06315e-10      9628.71
       770.00000  2.06315e-10      9628.71
       770.10000  2.06315e-10      9630.77
       770.20000  2.06315e-10      9632.83
       770.30000  2.06315e-10      9632.83
       770.40000  2.06315e-10      9632.83
       770.50000  1.85410e-10      8656.79
       770.60000  1.85410e-10      8656.79
       770.70000  1.85410e-10      8656.79
       770.80000  1.85410e-10      8656.79
       770.90000  1.85410e-10      8654.94
       771.00000  1.85410e-10      8653.09
       771.10000  1.85410e-10      8660.50
       771.20000  1.85410e-10      8666.06
       771.30000  1.81915e-10      8508.16
       771.40000  1.81915e-10      8513.62
       771.50000  9.37341e-11      4389.57
       771.60000  9.37341e-11      4391.44
       771.70000  9.37341e-11      4394.25
       771.80000  9.37341e-11      4396.13
       771.90000  9.37341e-11      4397.06
       772.00000  9.37341e-11      4398.94
       772.10000  9.37341e-11      4399.88
       772.20000  9.37341e-11      4400.81
       772.30000  9.37341e-11      4401.75
       772.40000  9.37341e-11      4402.69
       772.50000  9.00464e-11      4229.48
       772.60000  9.00464e-11      4229.48
       772.70000  9.00464e-11      4229.48
       772.80000  9.00464e-11      4228.58
       772.90000  9.00464e-11      4228.58
       773.00000  9.00464e-11      4227.68
       773.10000  9.00464e-11      4222.28
       773.20000  9.00464e-11      4217.78
       773.30000  9.00464e-11      4212.37
       773.40000  9.00464e-11      4207.87
       773.50000  4.95945e-11      2315.07
       773.60000  4.95945e-11      2313.09
       773.70000  4.95945e-11      2311.10
       773.80000  4.88204e-11      2273.08
       773.90000  4.88204e-11      2271.13
       774.00000  4.88204e-11      2269.17
       774.10000  4.88204e-11      2267.71
       774.20000  4.88204e-11      2266.24
       774.30000  4.88204e-11      2265.27
       774.40000  4.88204e-11      2263.80
       774.50000  4.15885e-11      1927.63
       774.60000  4.15885e-11      1927.21
       774.70000  4.15885e-11      1926.38
       774.80000  4.15885e-11      1925.96
       774.90000  4.15885e-11      1925.55
       775.00000  4.15885e-11      1925.13
       775.10000  4.15885e-11      1925.13
       775.20000  4.15885e-11      1925.13
       775.30000  4.15885e-11      1925.13
       775.40000  4.15885e-11      1925.13
       775.50000  3.46554e-11      1604.54
       775.60000  3.46554e-11      1604.89
       775.70000  3.46554e-11      1605.24
       775.80000  3.46554e-11      1605.58
       775.90000  3.46554e-11      1606.28
       776.00000  3.46554e-11      1606.97
       776.10000  3.46554e-11      1607.66
       776.20000  3.46554e-11      1608.70
       776.30000  3.41537e-11      1586.44
       776.40000  3.41537e-11      1587.46
       776.50000  2.53443e-11      1178.76
       776.60000  2.53443e-11      1179.77
       776.70000  2.53443e-11      1180.79
       776.80000  2.53443e-11      1181.80
       776.90000  2.53443e-11      1183.07
       777.00000  2.53443e-11      1184.08
       777.10000  2.53443e-11      1183.58
       777.20000  2.53443e-11      1183.32
       777.30000  2.53443e-11      1182.82
       777.40000  2.53443e-11      1182.31
       777.50000  1.97203e-11      919.558
       777.60000  1.97203e-11      919.361
       777.70000  1.97203e-11      918.967
       777.80000  1.97203e-11      918.770
       777.90000  1.97203e-11      918.572
       778.00000  1.97203e-11      918.178
       778.10000  1.97203e-11      917.981
       778.20000  1.97203e-11      917.784
       778.30000  1.97203e-11      917.586
       778.40000  1.97203e-11      917.389
       778.50000  1.71844e-11      799.420
       778.60000  1.71844e-11      799.248
       778.70000  1.71844e-11      799.076
       778.80000  1.69907e-11      790.065
       778.90000  1.69907e-11      790.065
       779.00000  1.69907e-11      789.895
       779.10000  1.69907e-11      790.235
       779.20000  1.69907e-11      790.405
       779.30000  1.69907e-11      790.745
       779.40000  1.69907e-11      790.915
       779.50000  1.18120e-11      549.968
       779.60000  1.18120e-11      550.086
       779.70000  1.18120e-11      550.205
       779.80000  1.18120e-11      550.323
       779.90000  1.18120e-11      550.441
       780.00000  1.18120e-11      550.559
       780.10000  1.18120e-11      550.559
       780.20000  1.18120e-11      550.677
       780.30000  1.18120e-11      550.677
       780.40000  1.18120e-11      550.677
       780.50000  1.07904e-11      503.046
       780.60000  1.07904e-11      503.046
       780.70000  1.07904e-11      503.046
       780.80000  1.07904e-11      503.046
       780.90000  1.07904e-11      503.046
       781.00000  1.07904e-11      502.938
       781.10000  1.07904e-11      502.938
       781.20000  1.07904e-11      502.830
       781.30000  1.06930e-11      498.188
       781.40000  1.06930e-11      498.081
       781.50000  1.12344e-11      523.188
       781.60000  1.12344e-11      523.076
       781.70000  1.12344e-11      522.963
       781.80000  1.12344e-11      522.851
       781.90000  1.12344e-11      522.626
       782.00000  1.12344e-11      522.514
       782.10000  1.12344e-11      522.289
       782.20000  1.12344e-11      522.064
       782.30000  1.12344e-11      521.952
       782.40000  1.12344e-11      521.727
       782.50000  8.46260e-12      392.834
       782.60000  8.46260e-12      392.580
       782.70000  8.46260e-12      392.411
       782.80000  8.46260e-12      392.242
       782.90000  8.46260e-12      391.988
       783.00000  8.46260e-12      391.818
       783.10000  8.46260e-12      391.988
       783.20000  8.46260e-12      392.157
       783.30000  8.46260e-12      392.326
       783.40000  8.46260e-12      392.411
       783.50000  1.02257e-11      474.368
       783.60000  1.02257e-11      474.573
       783.70000  1.02257e-11      474.675
       783.80000  1.01324e-11      470.549
       783.90000  1.01324e-11      470.751
       784.00000  1.01324e-11      470.853
       784.10000  1.01324e-11      470.954
       784.20000  1.01324e-11      471.157
       784.30000  1.01324e-11      471.258
       784.40000  1.01324e-11      471.359
       784.50000  9.11999e-12      424.353
       784.60000  9.11999e-12      424.444
       784.70000  9.11999e-12      424.536
       784.80000  9.11999e-12      424.627
       784.90000  9.11999e-12      424.718
       785.00000  9.11999e-12      424.718
       785.10000  9.11999e-12      424.718
       785.20000  9.11999e-12      424.718
       785.30000  9.11999e-12      424.718
       785.40000  9.11999e-12      424.718
       785.50000  1.02971e-11      479.535
       785.60000  1.02971e-11      479.535
       785.70000  1.02971e-11      479.535
       785.80000  1.02971e-11      479.535
       785.90000  1.02971e-11      479.535
       786.00000  1.02971e-11      479.535
       786.10000  1.02971e-11      479.535
       786.20000  1.02971e-11      479.535
       786.30000  1.01758e-11      473.887
       786.40000  1.01758e-11      473.887
       786.50000  9.54299e-12      444.417
       786.60000  9.54299e-12      444.417
       786.70000  9.54299e-12      444.417
       786.80000  9.54299e-12      444.417
       786.90000  9.54299e-12      444.417
       787.00000  9.54299e-12      444.417
       787.10000  9.54299e-12      444.417
       787.20000  9.54299e-12      444.417
       787.30000  9.54299e-12      444.417
       787.40000  9.54299e-12      444.417
       787.50000  1.36891e-11      637.502
       787.60000  1.36891e-11      637.502
       787.70000  1.36891e-11      637.502
       787.80000  1.36891e-11      637.502
       787.90000  1.36891e-11      637.502
       788.00000  1.36891e-11      637.502
       788.10000  1.36891e-11      637.502
       788.20000  1.36891e-11      637.502
       788.30000  1.36891e-11      637.502
       788.40000  1.36891e-11      637.502
       788.50000  9.77947e-12      455.430
       788.60000  9.77947e-12      455.430
       788.70000  9.77947e-12      455.430
       788.80000  9.66029e-12      449.880
       788.90000  9.66029e-12      449.880
       789.00000  9.66029e-12      449.880
       789.10000  9.66029e-12      449.687
       789.20000  9.66029e-12      449.397
       789.30000  9.66029e-12      449.107
       789.40000  9.66029e-12      448.914
       789.50000  1.02919e-11      477.955
       789.60000  1.02919e-11      477.647
       789.70000  1.02919e-11      477.441
       789.80000  1.02919e-11      477.132
       789.90000  1.02919e-11      476.823
       790.00000  1.02919e-11      476.618
       790.10000  1.02919e-11      476.309
       790.20000  1.02919e-11      476.103
       790.30000  1.02919e-11      475.794
       790.40000  1.02919e-11      475.588
       790.50000  1.15052e-11      531.311
       790.60000  1.15052e-11      530.966
       790.70000  1.15052e-11      530.736
       790.80000  1.15052e-11      530.390
       790.90000  1.15052e-11      530.160
       791.00000  1.15052e-11      529.815
       791.10000  1.15052e-11      529.470
       791.20000  1.15052e-11      529.240
       791.30000  1.13311e-11      520.889
       791.40000  1.13311e-11      520.549
       791.50000  1.17729e-11      540.494
       791.60000  1.17729e-11      540.141
       791.70000  1.17729e-11      539.906
       791.80000  1.17729e-11      539.553
       791.90000  1.17729e-11      539.317
       792.00000  1.17729e-11      538.964
       792.10000  1.17729e-11      538.729
       792.20000  1.17729e-11      538.493
       792.30000  1.17729e-11      538.140
       792.40000  1.17729e-11      537.904
       792.50000  1.03740e-11      473.779
       792.60000  1.03740e-11      473.572
       792.70000  1.03740e-11      473.364
       792.80000  1.03740e-11      473.157
       792.90000  1.03740e-11      472.949
       793.00000  1.03740e-11      472.742
       793.10000  1.03740e-11      472.431
       793.20000  1.03740e-11      472.016
       793.30000  1.03740e-11      471.704
       793.40000  1.03740e-11      471.393
       793.50000  9.50144e-12      431.460
       793.60000  9.50144e-12      431.270
       793.70000  9.50144e-12      430.985
       793.80000  9.33708e-12      423.437
       793.90000  9.33708e-12      423.250
       794.00000  9.33708e-12      423.156
       794.10000  9.33708e-12      422.970
       794.20000  9.33708e-12      422.970
       794.30000  9.33708e-12      422.876
       794.40000  9.33708e-12      422.876
       794.50000  4.22975e-12      191.565
       794.60000  4.22975e-12      191.565
       794.70000  4.22975e-12      191.608
       794.80000  4.22975e-12      191.608
       794.90000  4.22975e-12      191.650
       795.00000  4.22975e-12      191.735
       795.10000  4.22975e-12      192.031
       795.20000  4.22975e-12      192.327
       795.30000  4.22975e-12      192.623
       795.40000  4.22975e-12      192.919
       795.50000  7.43379e-12      339.501
       795.60000  7.43379e-12      339.947
       795.70000  7.43379e-12      340.319
       795.80000  7.43379e-12      340.691
       795.90000  7.43379e-12      341.062
       796.00000  7.43379e-12      341.360
       796.10000  7.43379e-12      341.657
       796.20000  7.43379e-12      341.954
       796.30000  7.27823e-12      335.017
       796.40000  7.27823e-12      335.235
       796.50000  6.21479e-12      286.440
       796.60000  6.21479e-12      286.564
       796.70000  6.21479e-12      286.688
       796.80000  6.21479e-12      286.750
       796.90000  6.21479e-12      286.813
       797.00000  6.21479e-12      286.875
       797.10000  6.21479e-12      286.937
       797.20000  6.21479e-12      286.937
       797.30000  6.21479e-12      286.937
       797.40000  6.21479e-12      286.875
       797.50000  3.86314e-12      178.284
       797.60000  3.86314e-12      178.245
       797.70000  3.86314e-12      178.168
       797.80000  3.86314e-12      178.091
       797.90000  3.86314e-12      178.013
       798.00000  3.86314e-12      177.897
       798.10000  3.86314e-12      177.782
       798.20000  3.86314e-12      177.666
       798.30000  3.86314e-12      177.511
       798.40000  3.86314e-12      177.357
       798.50000  2.83787e-12      130.173
       798.60000  2.83787e-12      130.031
       798.70000  2.83787e-12      129.889
       798.80000  2.77181e-12      126.727
       798.90000  2.77181e-12      126.561
       799.00000  2.77181e-12      126.394
       799.10000  2.77181e-12      126.478
       799.20000  2.77181e-12      126.588
       799.30000  2.77181e-12      126.699
       799.40000  2.77181e-12      126.782
       799.50000  1.45023e-12      66.3770
       799.60000  1.45023e-12      66.4205
       799.70000  1.45023e-12      66.4640
       799.80000  1.45023e-12      66.4930
       799.90000  1.45023e-12      66.5220
       800.00000  1.45023e-12      66.5510
       800.10000  1.45023e-12      66.5800
       800.20000  1.45023e-12      66.6090
       800.30000  1.45023e-12      66.6380
       800.40000  1.45023e-12      66.6525
       800.50000  3.50474e-12      161.113
       800.60000  3.50474e-12      161.148
       800.70000  3.50474e-12      161.148
       800.80000  3.50474e-12      161.183
       800.90000  3.50474e-12      161.183
       801.00000  3.50474e-12      161.183
       801.10000  3.50474e-12      161.113
       801.20000  3.50474e-12      161.043
       801.30000  3.42395e-12      157.262
       801.40000  3.42395e-12      157.194
       801.50000  2.21150e-12      101.486
       801.60000  2.21150e-12      101.441
       801.70000  2.21150e-12      101.397
       801.80000  2.21150e-12      101.353
       801.90000  2.21150e-12      101.309
       802.00000  2.21150e-12      101.265
       802.10000  2.21150e-12      101.220
       802.20000  2.21150e-12      101.176
       802.30000  2.21150e-12      101.132
       802.40000  2.21150e-12      101.088
       802.50000  4.45500e-12      203.549
       802.60000  4.45500e-12      203.460
       802.70000  4.45500e-12      203.371
       802.80000  4.45500e-12      203.237
       802.90000  4.45500e-12      203.148
       803.00000  4.45500e-12      203.059
       803.10000  4.45500e-12      202.970
       803.20000  4.45500e-12      202.881
       803.30000  4.45500e-12      202.792
       803.40000  4.45500e-12      202.658
       803.50000  1.26199e-12      57.3827
       803.60000  1.26199e-12      57.3575
       803.70000  1.26199e-12      57.3322
       803.80000  1.23241e-12      55.9639
       803.90000  1.23241e-12      55.9270
       804.00000  1.23241e-12      55.9023
       804.10000  1.23241e-12      55.8777
       804.20000  1.23241e-12      55.8530
       804.30000  1.23241e-12      55.8160
       804.40000  1.23241e-12      55.7914
       804.50000  1.38910e-12      62.8568
       804.60000  1.38910e-12      62.8152
       804.70000  1.38910e-12      62.7874
       804.80000  1.38910e-12      62.7596
       804.90000  1.38910e-12      62.7179
       805.00000  1.38910e-12      62.6901
       805.10000  1.38910e-12      62.7457
       805.20000  1.38910e-12      62.8152
       805.30000  1.38910e-12      62.8568
       805.40000  1.38910e-12      62.9124
       805.50000  1.44531e-12      65.5012
       805.60000  1.44531e-12      65.5446
       805.70000  1.44531e-12      65.5880
       805.80000  1.44531e-12      65.6169
       805.90000  1.44531e-12      65.6458
       806.00000  1.44531e-12      65.6747
       806.10000  1.44531e-12      65.6891
       806.20000  1.44531e-12      65.7036
       806.30000  1.40913e-12      64.0729
       806.40000  1.40913e-12      64.0870
       806.50000  1.98155e-12      90.1207
       806.60000  1.98155e-12      90.1207
       806.70000  1.98155e-12      90.1009
       806.80000  1.98155e-12      90.1009
       806.90000  1.98155e-12      90.0811
       807.00000  1.98155e-12      90.0414
       807.10000  1.98155e-12      89.8829
       807.20000  1.98155e-12      89.7046
       807.30000  1.98155e-12      89.5461
       807.40000  1.98155e-12      89.4073
       807.50000  4.25643e-13      19.1752
       807.60000  4.25643e-13      19.1454
       807.70000  4.25643e-13      19.1199
       807.80000  4.25643e-13      19.0986
       807.90000  4.25643e-13      19.0773
       808.00000  4.25643e-13      19.0560
       808.10000  4.25643e-13      19.0390
       808.20000  4.25643e-13      19.0220
       808.30000  4.25643e-13      19.0050
       808.40000  4.25643e-13      18.9922
       808.50000  3.24736e-13      14.4832
       808.60000  3.24736e-13      14.4767
       808.70000  3.24736e-13      14.4702
       808.80000  3.16639e-13      14.1063
       808.90000  3.16639e-13      14.1031
       809.00000  3.16639e-13      14.1031
       809.10000  3.16639e-13      14.1031
       809.20000  3.16639e-13      14.1063
       809.30000  3.16639e-13      14.1094
       809.40000  3.16639e-13      14.1126
       809.50000  5.69604e-13      25.3986
       809.60000  5.69604e-13      25.4157
       809.70000  5.69604e-13      25.4328
       809.80000  5.69604e-13      25.4499
       809.90000  5.69604e-13      25.4727
       810.00000  5.69604e-13      25.4955
       810.10000  5.69604e-13      25.5240
       810.20000  5.69604e-13      25.5524
       810.30000  5.69604e-13      25.5809
       810.40000  5.69604e-13      25.6151
       810.50000  1.47081e-12      66.2455
       810.60000  1.47081e-12      66.3337
       810.70000  1.47081e-12      66.4514
       810.80000  1.47081e-12      66.5690
       810.90000  1.47081e-12      66.6867
       811.00000  1.47081e-12      66.8191
       811.10000  1.47081e-12      66.8338
       811.20000  1.47081e-12      66.8632
       811.30000  1.43362e-12      65.1869
       811.40000  1.43362e-12      65.2156
       811.50000  2.30073e-12      104.683
       811.60000  2.30073e-12      104.706
       811.70000  2.30073e-12      104.729
       811.80000  2.30073e-12      104.752
       811.90000  2.30073e-12      104.775
       812.00000  2.30073e-12      104.798
       812.10000  2.30073e-12      104.798
       812.20000  2.30073e-12      104.821
       812.30000  2.30073e-12      104.844
       812.40000  2.30073e-12      104.844
       812.50000  5.78770e-13      26.3746
       812.60000  5.78770e-13      26.3803
       812.70000  5.78770e-13      26.3803
       812.80000  5.78770e-13      26.3803
       812.90000  5.78770e-13      26.3803
       813.00000  5.78770e-13      26.3803
       813.10000  5.78770e-13      26.3688
       813.20000  5.78770e-13      26.3630
       813.30000  5.78770e-13      26.3514
       813.40000  5.78770e-13      26.3456
       813.50000  2.28542e-12      103.987
       813.60000  2.28542e-12      103.964
       813.70000  2.28542e-12      103.941
       813.80000  2.22982e-12      101.390
       813.90000  2.22982e-12      101.368
       814.00000  2.22982e-12      101.323
       814.10000  2.22982e-12      101.301
       814.20000  2.22982e-12      101.279
       814.30000  2.22982e-12      101.256
       814.40000  2.22982e-12      101.256
       814.50000  1.20703e-12      54.7990
       814.60000  1.20703e-12      54.7869
       814.70000  1.20703e-12      54.7749
       814.80000  1.20703e-12      54.7628
       814.90000  1.20703e-12      54.7628
       815.00000  1.20703e-12      54.7507
       815.10000  1.20703e-12      54.7990
       815.20000  1.20703e-12      54.8352
       815.30000  1.20703e-12      54.8714
       815.40000  1.20703e-12      54.8956
       815.50000  1.72819e-12      78.6499
       815.60000  1.72819e-12      78.6671
       815.70000  1.72819e-12      78.7017
       815.80000  1.72819e-12      78.7017
       815.90000  1.72819e-12      78.7190
       816.00000  1.72819e-12      78.7190
       816.10000  1.72819e-12      78.7190
       816.20000  1.72819e-12      78.7017
       816.30000  1.68475e-12      76.7067
       816.40000  1.68475e-12      76.6899
       816.50000  2.45859e-13      11.1866
       816.60000  2.45859e-13      11.1817
       816.70000  2.45859e-13      11.1743
       816.80000  2.45859e-13      11.1669
       816.90000  2.45859e-13      11.1595
       817.00000  2.45859e-13      11.1497
       817.10000  2.45859e-13      11.1153
       817.20000  2.45859e-13      11.0833
       817.30000  2.45859e-13      11.0538
       817.40000  2.45859e-13      11.0243
       817.50000  7.14522e-13      31.9606
       817.60000  7.14522e-13      31.8891
       817.70000  7.14522e-13      31.8177
       817.80000  7.14522e-13      31.7462
       817.90000  7.14522e-13      31.6891
       818.00000  7.14522e-13      31.6248
       818.10000  7.14522e-13      31.5747
       818.20000  7.14522e-13      31.5247
       818.30000  7.14522e-13      31.4747
       818.40000  7.14522e-13      31.4390
       818.50000  8.36338e-13      36.7487
       818.60000  8.36338e-13      36.7152
       818.70000  8.36338e-13      36.6818
       818.80000  8.15150e-13      35.7199
       818.90000  8.15150e-13      35.7036
       819.00000  8.15150e-13      35.6791
       819.10000  8.15150e-13      35.6710
       819.20000  8.15150e-13      35.6628
       819.30000  8.15150e-13      35.6547
       819.40000  8.15150e-13      35.6547
       819.50000  4.80553e-13      21.0242
       819.60000  4.80553e-13      21.0290
       819.70000  4.80553e-13      21.0386
       819.80000  4.80553e-13      21.0530
       819.90000  4.80553e-13      21.0675
       820.00000  4.80553e-13      21.0867
       820.10000  4.80553e-13      21.1059
       820.20000  4.80553e-13      21.1299
       820.30000  4.80553e-13      21.1588
       820.40000  4.80553e-13      21.1876
       820.50000  1.85526e-13      8.19284
       820.60000  1.85526e-13      8.20583
       820.70000  1.85526e-13      8.22067
       820.80000  1.85526e-13      8.23551
       820.90000  1.85526e-13      8.25221
       821.00000  1.85526e-13      8.27076
       821.10000  1.85526e-13      8.26705
       821.20000  1.85526e-13      8.26519
       821.30000  1.81248e-13      8.07096
       821.40000  1.81248e-13      8.06914
       821.50000  2.33300e-12      103.819
       821.60000  2.33300e-12      103.795
       821.70000  2.33300e-12      103.772
       821.80000  2.33300e-12      103.725
       821.90000  2.33300e-12      103.702
       822.00000  2.33300e-12      103.679
       822.10000  2.33300e-12      103.679
       822.20000  2.33300e-12      103.655
       822.30000  2.33300e-12      103.632
       822.40000  2.33300e-12      103.632
       822.50000  8.08056e-13      35.8857
       822.60000  8.08056e-13      35.8857
       822.70000  8.08056e-13      35.8777
       822.80000  8.08056e-13      35.8777
       822.90000  8.08056e-13      35.8777
       823.00000  8.08056e-13      35.8777
       823.10000  8.08056e-13      35.8777
       823.20000  8.08056e-13      35.8777
       823.30000  8.08056e-13      35.8777
       823.40000  8.08056e-13      35.8777
       823.50000  2.39591e-13      10.6402
       823.60000  2.39591e-13      10.6402
       823.70000  2.39591e-13      10.6426
       823.80000  2.34265e-13      10.4061
       823.90000  2.34265e-13      10.4084
       824.00000  2.34265e-13      10.4107
       824.10000  2.34265e-13      10.4131
       824.20000  2.34265e-13      10.4154
       824.30000  2.34265e-13      10.4178
       824.40000  2.34265e-13      10.4225
       824.50000  8.30353e-18  0.000369507
       824.60000  8.30353e-18  0.000369673
       824.70000  8.30353e-18  0.000369756
       824.80000  8.30353e-18  0.000369922
       824.90000  8.30353e-18  0.000370089
       825.00000  8.30353e-18  0.000370255
       825.10000  8.30353e-18  0.000370421
       825.20000  8.30353e-18  0.000370587
       825.30000  8.30353e-18  0.000370836
       825.40000  8.30353e-18  0.000371002
       825.50000  1.65353e-12      73.9294
       825.60000  1.65353e-12      73.9624
       825.70000  1.65353e-12      74.0121
       825.80000  1.65353e-12      74.0617
       825.90000  1.65353e-12      74.1113
       826.00000  1.65353e-12      74.1609
       826.10000  1.65353e-12      74.2105
       826.20000  1.65353e-12      74.2435
       826.30000  1.61987e-12      72.7809
       826.40000  1.61987e-12      72.8133
       826.50000  9.57194e-14      4.30354
       826.60000  9.57194e-14      4.30546
       826.70000  9.57194e-14      4.30737
       826.80000  9.57194e-14      4.30833
       826.90000  9.57194e-14      4.30929
       827.00000  9.57194e-14      4.31024
       827.10000  9.57194e-14      4.31024
       827.20000  9.57194e-14      4.31120
       827.30000  9.57194e-14      4.31120
       827.40000  9.57194e-14      4.31120
       827.50000  1.21313e-12      54.6393
       827.60000  1.21313e-12      54.6393
       827.70000  1.21313e-12      54.6271
       827.80000  1.21313e-12      54.6150
       827.90000  1.21313e-12      54.6029
       828.00000  1.21313e-12      54.5907
       828.10000  1.21313e-12      54.5543
       828.20000  1.21313e-12      54.5058
       828.30000  1.21313e-12      54.4573
       828.40000  1.21313e-12      54.4088
       828.50000  3.59821e-13      16.1272
       828.60000  3.59821e-13      16.1128
       828.70000  3.59821e-13      16.1020
       828.80000  3.52756e-13      15.7752
       828.90000  3.52756e-13      15.7611
       829.00000  3.52756e-13      15.7505
       829.10000  3.52756e-13      15.7400
       829.20000  3.52756e-13      15.7294
       829.30000  3.52756e-13      15.7188
       829.40000  3.52756e-13      15.7082
       829.50000  1.94089e-12      86.3698
       829.60000  1.94089e-12      86.3115
       829.70000  1.94089e-12      86.2533
       829.80000  1.94089e-12      86.1951
       829.90000  1.94089e-12      86.1562
       830.00000  1.94089e-12      86.0980
       830.10000  1.94089e-12      86.0592
       830.20000  1.94089e-12      86.0010
       830.30000  1.94089e-12      85.9622
       830.40000  1.94089e-12      85.9039
       830.50000  7.07225e-13      31.2876
       830.60000  7.07225e-13      31.2735
       830.70000  7.07225e-13      31.2523
       830.80000  7.07225e-13      31.2381
       830.90000  7.07225e-13      31.2240
       831.00000  7.07225e-13      31.2098
       831.10000  7.07225e-13      31.1957
       831.20000  7.07225e-13      31.1815
       831.30000  6.93132e-13      30.5533
       831.40000  6.93132e-13      30.5394
       831.50000  1.09017e-12      48.0109
       831.60000  1.09017e-12      48.0000
       831.70000  1.09017e-12      47.9782
       831.80000  1.09017e-12      47.9564
       831.90000  1.09017e-12      47.9455
       832.00000  1.09017e-12      47.9346
       832.10000  1.09017e-12      47.8910
       832.20000  1.09017e-12      47.8474
       832.30000  1.09017e-12      47.8147
       832.40000  1.09017e-12      47.7820
       832.50000  6.51170e-13      28.5212
       832.60000  6.51170e-13      28.5082
       832.70000  6.51170e-13      28.4952
       832.80000  6.51170e-13      28.4757
       832.90000  6.51170e-13      28.4692
       833.00000  6.51170e-13      28.4561
       833.10000  6.51170e-13      28.4431
       833.20000  6.51170e-13      28.4366
       833.30000  6.51170e-13      28.4301
       833.40000  6.51170e-13      28.4236
       833.50000  9.71768e-13      42.4177
       833.60000  9.71768e-13      42.4079
       833.70000  9.71768e-13      42.4079
       833.80000  9.53632e-13      41.6165
       833.90000  9.53632e-13      41.6261
       834.00000  9.53632e-13      41.6261
       834.10000  9.53632e-13      41.6737
       834.20000  9.53632e-13      41.7119
       834.30000  9.53632e-13      41.7596
       834.40000  9.53632e-13      41.7977
       834.50000  1.73346e-12      76.0469
       834.60000  1.73346e-12      76.1162
       834.70000  1.73346e-12      76.1682
       834.80000  1.73346e-12      76.2202
       834.90000  1.73346e-12      76.2896
       835.00000  1.73346e-12      76.3416
       835.10000  1.73346e-12      76.3763
       835.20000  1.73346e-12      76.4283
       835.30000  1.73346e-12      76.4629
       835.40000  1.73346e-12      76.4976
       835.50000  3.72338e-13      16.4387
       835.60000  3.72338e-13      16.4462
       835.70000  3.72338e-13      16.4499
       835.80000  3.72338e-13      16.4574
       835.90000  3.72338e-13      16.4611
       836.00000  3.72338e-13      16.4648
       836.10000  3.72338e-13      16.4574
       836.20000  3.72338e-13      16.4536
       836.30000  3.66320e-13      16.1804
       836.40000  3.66320e-13      16.1767
       836.50000  3.06292e-13      13.5228
       836.60000  3.06292e-13      13.5167
       836.70000  3.06292e-13      13.5136
       836.80000  3.06292e-13      13.5105
       836.90000  3.06292e-13      13.5044
       837.00000  3.06292e-13      13.5014
       837.10000  3.06292e-13      13.4983
       837.20000  3.06292e-13      13.4952
       837.30000  3.06292e-13      13.4922
       837.40000  3.06292e-13      13.4891
       837.50000  1.27284e-13      5.60433
       837.60000  1.27284e-13      5.60306
       837.70000  1.27284e-13      5.60179
       837.80000  1.27284e-13      5.60051
       837.90000  1.27284e-13      5.60051
       838.00000  1.27284e-13      5.59924
       838.10000  1.27284e-13      5.59797
       838.20000  1.27284e-13      5.59797
       838.30000  1.27284e-13      5.59797
       838.40000  1.27284e-13      5.59797
       838.50000  6.39992e-13      28.1405
       838.60000  6.39992e-13      28.1405
       838.70000  6.39992e-13      28.1405
       838.80000  6.30583e-13      27.7204
       838.90000  6.30583e-13      27.7204
       839.00000  6.30583e-13      27.7204
       839.10000  6.30583e-13      27.7141
       839.20000  6.30583e-13      27.7141
       839.30000  6.30583e-13      27.7141
       839.40000  6.30583e-13      27.7078
       839.50000  1.06115e-13      4.66269
       839.60000  1.06115e-13      4.66269
       839.70000  1.06115e-13      4.66163
       839.80000  1.06115e-13      4.66163
       839.90000  1.06115e-13      4.66163
       840.00000  1.06115e-13      4.66057
       840.10000  1.06115e-13      4.66057
       840.20000  1.06115e-13      4.66057
       840.30000  1.06115e-13      4.65951
       840.40000  1.06115e-13      4.65951
       840.50000  1.49765e-12      65.7617
       840.60000  1.49765e-12      65.7467
       840.70000  1.49765e-12      65.7467
       840.80000  1.49765e-12      65.7467
       840.90000  1.49765e-12      65.7317
       841.00000  1.49765e-12      65.7317
       841.10000  1.49765e-12      65.7317
       841.20000  1.49765e-12      65.7317
       841.30000  1.47340e-12      64.6527
       841.40000  1.47340e-12      64.6527
       841.50000  1.34658e-12      59.0879
       841.60000  1.34658e-12      59.0744
       841.70000  1.34658e-12      59.0744
       841.80000  1.34658e-12      59.0744
       841.90000  1.34658e-12      59.0610
       842.00000  1.34658e-12      59.0610
       842.10000  1.34658e-12      59.0071
       842.20000  1.34658e-12      58.9667
       842.30000  1.34658e-12      58.9263
       842.40000  1.34658e-12      58.8724
       842.50000  5.48202e-13      23.9509
       842.60000  5.48202e-13      23.9400
       842.70000  5.48202e-13      23.9235
       842.80000  5.48202e-13      23.9126
       842.90000  5.48202e-13      23.8961
       843.00000  5.48202e-13      23.8852
       843.10000  5.48202e-13      23.8742
       843.20000  5.48202e-13      23.8632
       843.30000  5.48202e-13      23.8577
       843.40000  5.48202e-13      23.8468
       843.50000  5.70024e-18  0.000247904
       843.60000  5.70024e-18  0.000247847
       843.70000  5.70024e-18  0.000247790
       843.80000  5.60083e-18  0.000243412
       843.90000  5.60083e-18  0.000243412
       844.00000  5.60083e-18  0.000243356
       844.10000  5.60083e-18  0.000243524
       844.20000  5.60083e-18  0.000243636
       844.30000  5.60083e-18  0.000243748
       844.40000  5.60083e-18  0.000243860
       844.50000  1.29066e-12      56.2212
       844.60000  1.29066e-12      56.2470
       844.70000  1.29066e-12      56.2599
       844.80000  1.29066e-12      56.2858
       844.90000  1.29066e-12      56.2987
       845.00000  1.29066e-12      56.3245
       845.10000  1.29066e-12      56.3374
       845.20000  1.29066e-12      56.3503
       845.30000  1.29066e-12      56.3761
       845.40000  1.29066e-12      56.3890
       845.50000  7.65969e-13      33.4652
       845.60000  7.65969e-13      33.4728
       845.70000  7.65969e-13      33.4805
       845.80000  7.65969e-13      33.4882
       845.90000  7.65969e-13      33.4882
       846.00000  7.65969e-13      33.4958
       846.10000  7.65969e-13      33.4958
       846.20000  7.65969e-13      33.4958
       846.30000  7.51629e-13      32.8687
       846.40000  7.51629e-13      32.8762
       846.50000  3.72957e-13      16.3131
       846.60000  3.72957e-13      16.3094
       846.70000  3.72957e-13      16.3094
       846.80000  3.72957e-13      16.3094
       846.90000  3.72957e-13      16.3057
       847.00000  3.72957e-13      16.3057
       847.10000  3.72957e-13      16.3019
       847.20000  3.72957e-13      16.3019
       847.30000  3.72957e-13      16.2982
       847.40000  3.72957e-13      16.2945
       847.50000  6.66793e-13      29.1255
       847.60000  6.66793e-13      29.1188
       847.70000  6.66793e-13      29.1122
       847.80000  6.66793e-13      29.1055
       847.90000  6.66793e-13      29.0922
       848.00000  6.66793e-13      29.0855
       848.10000  6.66793e-13      28.9455
       848.20000  6.66793e-13      28.8188
       848.30000  6.66793e-13      28.6921
       848.40000  6.66793e-13      28.5721
       848.50000  5.88401e-13      25.1130
       848.60000  5.88401e-13      25.0247
       848.70000  5.88401e-13      24.9365
       848.80000  5.77640e-13      24.3995
       848.90000  5.77640e-13      24.3244
       849.00000  5.77640e-13      24.2551
       849.10000  5.77640e-13      24.1858
       849.20000  5.77640e-13      24.1280
       849.30000  5.77640e-13      24.0760
       849.40000  5.77640e-13      24.0240
       849.50000  6.18714e-13      25.6890
       849.60000  6.18714e-13      25.6457
       849.70000  6.18714e-13      25.6148
       849.80000  6.18714e-13      25.5838
       849.90000  6.18714e-13      25.5591
       850.00000  6.18714e-13      25.5405
       850.10000  6.18714e-13      25.6766
       850.20000  6.18714e-13      25.8066
       850.30000  6.18714e-13      25.9241
       850.40000  6.18714e-13      26.0293
       850.50000  7.27180e-13      30.7088
       850.60000  7.27180e-13      30.8106
       850.70000  7.27180e-13      30.8979
       850.80000  7.27180e-13      30.9779
       850.90000  7.27180e-13      31.0433
       851.00000  7.27180e-13      31.1015
       851.10000  7.27180e-13      31.1451
       851.20000  7.27180e-13      31.1815
       851.30000  7.14650e-13      30.6656
       851.40000  7.14650e-13      30.6728
       851.50000  5.53637e-13      23.7621
       851.60000  5.53637e-13      23.7510
       851.70000  5.53637e-13      23.7344
       851.80000  5.53637e-13      23.7067
       851.90000  5.53637e-13      23.6680
       852.00000  5.53637e-13      23.6237
       852.10000  5.53637e-13      23.5683
       852.20000  5.53637e-13      23.5074
       852.30000  5.53637e-13      23.4354
       852.40000  5.53637e-13      23.3579
       852.50000  4.39365e-13      18.4621
       852.60000  4.39365e-13      18.3874
       852.70000  4.39365e-13      18.2995
       852.80000  4.39365e-13      18.2117
       852.90000  4.39365e-13      18.1106
       853.00000  4.39365e-13      18.0052
       853.10000  4.39365e-13      17.8909
       853.20000  4.39365e-13      17.7723
       853.30000  4.39365e-13      17.6449
       853.40000  4.39365e-13      17.5131
       853.50000  5.22977e-13      20.6785
       853.60000  5.22977e-13      20.5007
       853.70000  5.22977e-13      20.3176
       853.80000  5.14027e-13      19.7797
       853.90000  5.14027e-13      19.5844
       854.00000  5.14027e-13      19.3788
       854.10000  5.14027e-13      19.5227
       854.20000  5.14027e-13      19.6667
       854.30000  5.14027e-13      19.8054
       854.40000  5.14027e-13      19.9391
       854.50000  5.73570e-13      22.3922
       854.60000  5.73570e-13      22.5356
       854.70000  5.73570e-13      22.6732
       854.80000  5.73570e-13      22.8051
       854.90000  5.73570e-13      22.9371
       855.00000  5.73570e-13      23.0632
       855.10000  5.73570e-13      23.1837
       855.20000  5.73570e-13      23.2984
       855.30000  5.73570e-13      23.4131
       855.40000  5.73570e-13      23.5164
       855.50000  4.38980e-13      18.0816
       855.60000  4.38980e-13      18.1562
       855.70000  4.38980e-13      18.2308
       855.80000  4.38980e-13      18.3011
       855.90000  4.38980e-13      18.3669
       856.00000  4.38980e-13      18.4284
       856.10000  4.38980e-13      18.4767
       856.20000  4.38980e-13      18.5206
       856.30000  4.30113e-13      18.1895
       856.40000  4.30113e-13      18.2325
       856.50000  6.33975e-13      26.9312
       856.60000  6.33975e-13      26.9883
       856.70000  6.33975e-13      27.0390
       856.80000  6.33975e-13      27.0897
       856.90000  6.33975e-13      27.1341
       857.00000  6.33975e-13      27.1785
       857.10000  6.33975e-13      27.2229
       857.20000  6.33975e-13      27.2609
       857.30000  6.33975e-13      27.2989
       857.40000  6.33975e-13      27.3306
       857.50000  3.45118e-13      14.8953
       857.60000  3.45118e-13      14.9126
       857.70000  3.45118e-13      14.9264
       857.80000  3.45118e-13      14.9402
       857.90000  3.45118e-13      14.9505
       858.00000  3.45118e-13      14.9643
       858.10000  3.45118e-13      14.9712
       858.20000  3.45118e-13      14.9781
       858.30000  3.45118e-13      14.9850
       858.40000  3.45118e-13      14.9885
       858.50000  5.63663e-13      24.4855
       858.60000  5.63663e-13      24.4912
       858.70000  5.63663e-13      24.4912
       858.80000  5.51608e-13      23.9674
       858.90000  5.51608e-13      23.9618
       859.00000  5.51608e-13      23.9563
       859.10000  5.51608e-13      23.9508
       859.20000  5.51608e-13      23.9398
       859.30000  5.51608e-13      23.9287
       859.40000  5.51608e-13      23.9122
       859.50000  2.31392e-13      10.0239
       859.60000  2.31392e-13      10.0170
       859.70000  2.31392e-13      10.0077
       859.80000  2.31392e-13      9.99616
       859.90000  2.31392e-13      9.98690
       860.00000  2.31392e-13      9.97533
       860.10000  2.31392e-13      9.97302
       860.20000  2.31392e-13      9.97070
       860.30000  2.31392e-13      9.97070
       860.40000  2.31392e-13      9.97070
       860.50000  5.20650e-13      22.4296
       860.60000  5.20650e-13      22.4296
       860.70000  5.20650e-13      22.4296
       860.80000  5.20650e-13      22.4296
       860.90000  5.20650e-13      22.4296
       861.00000  5.20650e-13      22.4296
       861.10000  5.20650e-13      22.4296
       861.20000  5.20650e-13      22.4296
       861.30000  5.09581e-13      21.9528
       861.40000  5.09581e-13      21.9578
       861.50000  6.76431e-13      29.1474
       861.60000  6.76431e-13      29.1474
       861.70000  6.76431e-13      29.1542
       861.80000  6.76431e-13      29.1610
       861.90000  6.76431e-13      29.1610
       862.00000  6.76431e-13      29.1677
       862.10000  6.76431e-13      29.2624
       862.20000  6.76431e-13      29.3436
       862.30000  6.76431e-13      29.4180
       862.40000  6.76431e-13      29.4856
       862.50000  6.51915e-13      28.4691
       862.60000  6.51915e-13      28.5148
       862.70000  6.51915e-13      28.5539
       862.80000  6.51915e-13      28.5865
       862.90000  6.51915e-13      28.6060
       863.00000  6.51915e-13      28.6191
       863.10000  6.51915e-13      28.6256
       863.20000  6.51915e-13      28.6256
       863.30000  6.51915e-13      28.6126
       863.40000  6.51915e-13      28.5930
       863.50000  5.35403e-13      23.4614
       863.60000  5.35403e-13      23.4292
       863.70000  5.35403e-13      23.3918
       863.80000  5.23956e-13      22.8497
       863.90000  5.23956e-13      22.8026
       864.00000  5.23956e-13      22.7449
       864.10000  5.23956e-13      22.6820
       864.20000  5.23956e-13      22.6139
       864.30000  5.23956e-13      22.5353
       864.40000  5.23956e-13      22.4567
       864.50000  2.68602e-13      11.4639
       864.60000  2.68602e-13      11.4156
       864.70000  2.68602e-13      11.3619
       864.80000  2.68602e-13      11.3081
       864.90000  2.68602e-13      11.2464
       865.00000  2.68602e-13      11.1846
       865.10000  2.68602e-13      11.1174
       865.20000  2.68602e-13      11.0476
       865.30000  2.68602e-13      10.9751
       865.40000  2.68602e-13      10.8972
       865.50000  4.25934e-13      17.1524
       865.60000  4.25934e-13      17.0203
       865.70000  4.25934e-13      16.8840
       865.80000  4.25934e-13      16.7392
       865.90000  4.25934e-13      16.5901
       866.00000  4.25934e-13      16.4368
       866.10000  4.25934e-13      16.4964
       866.20000  4.25934e-13      16.5518
       866.30000  4.16875e-13      16.2581
       866.40000  4.16875e-13      16.3123
       866.50000  3.44263e-13      13.5158
       866.60000  3.44263e-13      13.5605
       866.70000  3.44263e-13      13.6053
       866.80000  3.44263e-13      13.6500
       866.90000  3.44263e-13      13.6914
       867.00000  3.44263e-13      13.7327
       867.10000  3.44263e-13      13.7740
       867.20000  3.44263e-13      13.8153
       867.30000  3.44263e-13      13.8566
       867.40000  3.44263e-13      13.8945
       867.50000  7.50494e-13      30.3725
       867.60000  7.50494e-13      30.4550
       867.70000  7.50494e-13      30.5376
       867.80000  7.50494e-13      30.6201
       867.90000  7.50494e-13      30.6952
       868.00000  7.50494e-13      30.7702
       868.10000  7.50494e-13      30.8528
       868.20000  7.50494e-13      30.9354
       868.30000  7.50494e-13      31.0104
       868.40000  7.50494e-13      31.0855
       868.50000  3.37994e-13      14.0335
       868.60000  3.37994e-13      14.0639
       868.70000  3.37994e-13      14.0977
       868.80000  3.30594e-13      13.8155
       868.90000  3.30594e-13      13.8453
       869.00000  3.30594e-13      13.8717
       869.10000  3.30594e-13      13.8982
       869.20000  3.30594e-13      13.9246
       869.30000  3.30594e-13      13.9511
       869.40000  3.30594e-13      13.9742
       869.50000  2.45637e-13      10.4003
       869.60000  2.45637e-13      10.4150
       869.70000  2.45637e-13      10.4297
       869.80000  2.45637e-13      10.4445
       869.90000  2.45637e-13      10.4592
       870.00000  2.45637e-13      10.4739
       870.10000  2.45637e-13      10.4862
       870.20000  2.45637e-13      10.4985
       870.30000  2.45637e-13      10.5083
       870.40000  2.45637e-13      10.5182
       870.50000  6.48899e-14      2.78118
       870.60000  6.48899e-14      2.78378
       870.70000  6.48899e-14      2.78572
       870.80000  6.48899e-14      2.78832
       870.90000  6.48899e-14      2.78962
       871.00000  6.48899e-14      2.79156
       871.10000  6.48899e-14      2.79286
       871.20000  6.48899e-14      2.79416
       871.30000  6.35294e-14      2.73685
       871.40000  6.35294e-14      2.73748
       871.50000  4.40516e-13      18.9863
       871.60000  4.40516e-13      18.9907
       871.70000  4.40516e-13      18.9907
       871.80000  4.40516e-13      18.9951
       871.90000  4.40516e-13      18.9907
       872.00000  4.40516e-13      18.9907
       872.10000  4.40516e-13      18.9774
       872.20000  4.40516e-13      18.9686
       872.30000  4.40516e-13      18.9554
       872.40000  4.40516e-13      18.9466
       872.50000  1.86986e-13      8.03667
       872.60000  1.86986e-13      8.03293
       872.70000  1.86986e-13      8.02919
       872.80000  1.86986e-13      8.02545
       872.90000  1.86986e-13      8.01985
       873.00000  1.86986e-13      8.01610
       873.10000  1.86986e-13      8.01237
       873.20000  1.86986e-13      8.00863
       873.30000  1.86986e-13      8.00489
       873.40000  1.86986e-13      8.00115
       873.50000  3.08622e-14      1.31998
       873.60000  3.08622e-14      1.31936
       873.70000  3.08622e-14      1.31874
       873.80000  3.01618e-14      1.28851
       873.90000  3.01618e-14      1.28791
       874.00000  3.01618e-14      1.28731
       877.00000  5.00217e-13      21.3343
       877.10000  5.00217e-13      21.3493
       877.20000  5.00217e-13      21.3643
       877.30000  5.00217e-13      21.3793
       877.40000  5.00217e-13      21.3993
       877.50000  1.01877e-12      43.6235
       877.60000  1.01877e-12      43.6643
       877.70000  1.01877e-12      43.7050
       877.80000  1.01877e-12      43.7458
       877.90000  1.01877e-12      43.7967
       878.00000  1.01877e-12      43.8476
       878.10000  1.01877e-12      43.7865
       878.20000  1.01877e-12      43.7356
       878.30000  1.01877e-12      43.6846
       878.40000  1.01877e-12      43.6337
       878.50000  3.36129e-13      14.3796
       878.60000  3.36129e-13      14.3662
       878.70000  3.36129e-13      14.3494
       878.80000  3.27929e-13      13.9862
       878.90000  3.27929e-13      13.9730
       879.00000  3.27929e-13      13.9599
       883.00000  2.43056e-13      10.3347
       883.10000  2.43056e-13      10.3396
       883.20000  2.43056e-13      10.3445
       883.30000  2.43056e-13      10.3469
       883.40000  2.43056e-13      10.3493
       883.50000  5.44219e-13      23.1783
       883.60000  5.44219e-13      23.1783
       883.70000  5.44219e-13      23.1783
       883.80000  5.31578e-13      22.6399
       883.90000  5.31578e-13      22.6346
       884.00000  5.31578e-13      22.6293
       886.00000  1.14914e-12      48.0342
       888.00000  1.24921e-12      52.6668
       890.00000  1.26311e-12      53.8590
       890.10000  1.26311e-12      53.8211
       890.20000  1.26311e-12      53.7832
       890.30000  1.26311e-12      53.7453
       890.40000  1.26311e-12      53.7074
       890.50000  1.73057e-12      73.5317
       890.60000  1.73057e-12      73.4798
       890.70000  1.73057e-12      73.4279
       890.80000  1.73057e-12      73.3760
       890.90000  1.73057e-12      73.3241
       891.00000  1.73057e-12      73.2895
       893.00000  5.04286e-13      21.1800
       899.00000  6.19368e-13      25.9392
       899.10000  6.19368e-13      25.9144
       899.20000  6.19368e-13      25.8896
       899.30000  6.19368e-13      25.8648
       899.40000  6.19368e-13      25.8401
       899.50000  3.93331e-12      163.940
       899.60000  3.93331e-12      163.744
       899.70000  3.93331e-12      163.587
       899.80000  3.93331e-12      163.390
       899.90000  3.93331e-12      163.193
       900.00000  3.93331e-12      162.997
       900.10000  3.93331e-12      162.525
       900.20000  3.93331e-12      162.131
       900.30000  3.93331e-12      161.699
       900.40000  3.93331e-12      161.345
       900.50000  4.53776e-12      185.730
       900.60000  4.53776e-12      185.367
       900.70000  4.53776e-12      185.004
       900.80000  4.53776e-12      184.732
       900.90000  4.53776e-12      184.460
       901.00000  4.53776e-12      184.188
       901.10000  4.53776e-12      184.006
       901.20000  4.53776e-12      183.825
       901.30000  4.47331e-12      181.035
       901.40000  4.47331e-12      180.945
       901.50000  3.89761e-12      157.581
       901.60000  3.89761e-12      157.542
       901.70000  3.89761e-12      157.503
       901.80000  3.89761e-12      157.503
       901.90000  3.89761e-12      157.542
       902.00000  3.89761e-12      157.620
       902.10000  3.89761e-12      158.165
       902.20000  3.89761e-12      158.672
       902.30000  3.89761e-12      159.179
       902.40000  3.89761e-12      159.646
       902.50000  3.62221e-12      148.800
       902.60000  3.62221e-12      149.199
       902.70000  3.62221e-12      149.597
       902.80000  3.62221e-12      149.959
       902.90000  3.62221e-12      150.322
       903.00000  3.62221e-12      150.648
       903.10000  3.62221e-12      150.974
       903.20000  3.62221e-12      151.263
       903.30000  3.62221e-12      151.517
       903.40000  3.62221e-12      151.770
       903.50000  3.69892e-12      155.207
       903.60000  3.69892e-12      155.429
       903.70000  3.69892e-12      155.651
       903.80000  3.64738e-12      153.628
       903.90000  3.64738e-12      153.810
       904.00000  3.64738e-12      153.919
       904.10000  3.64738e-12      154.029
       904.20000  3.64738e-12      154.138
       904.30000  3.64738e-12      154.211
       904.40000  3.64738e-12      154.248
       904.50000  4.15683e-12      175.834
       904.60000  4.15683e-12      175.876
       904.70000  4.15683e-12      175.876
       904.80000  4.15683e-12      175.834
       904.90000  4.15683e-12      175.792
       905.00000  4.15683e-12      175.709
       905.10000  4.15683e-12      175.626
       905.20000  4.15683e-12      175.501
       905.30000  4.15683e-12      175.377
       905.40000  4.15683e-12      175.210
       905.50000  3.71982e-12      156.604
       905.60000  3.71982e-12      156.418
       905.70000  3.71982e-12      156.232
       905.80000  3.71982e-12      156.009
       905.90000  3.71982e-12      155.749
       906.00000  3.71982e-12      155.488
       906.10000  3.71982e-12      155.340
       906.20000  3.71982e-12      155.228
       906.30000  3.66607e-12      152.875
       906.40000  3.66607e-12      152.728
       906.50000  4.08091e-12      169.888
       906.60000  4.08091e-12      169.766
       906.70000  4.08091e-12      169.643
       906.80000  4.08091e-12      169.521
       906.90000  4.08091e-12      169.399
       907.00000  4.08091e-12      169.276
       907.10000  4.08091e-12      169.154
       907.20000  4.08091e-12      169.031
       907.30000  4.08091e-12      168.909
       907.40000  4.08091e-12      168.786
       907.50000  2.38084e-12      98.4002
       907.60000  2.38084e-12      98.3526
       907.70000  2.38084e-12      98.2812
       907.80000  2.38084e-12      98.2098
       907.90000  2.38084e-12      98.1622
       908.00000  2.38084e-12      98.0907
       908.10000  2.38084e-12      97.9955
       908.20000  2.38084e-12      97.9241
       908.30000  2.38084e-12      97.8288
       908.40000  2.38084e-12      97.7574
       908.50000  3.05659e-12      125.412
       908.60000  3.05659e-12      125.320
       908.70000  3.05659e-12      125.259
       908.80000  3.01046e-12      123.278
       908.90000  3.01046e-12      123.218
       909.00000  3.01046e-12      123.158
       909.10000  3.01046e-12      123.098
       909.20000  3.01046e-12      123.038
       909.30000  3.01046e-12      122.977
       909.40000  3.01046e-12      122.947
       909.50000  2.39084e-12      97.6180
       909.60000  2.39084e-12      97.5940
       909.70000  2.39084e-12      97.5701
       909.80000  2.39084e-12      97.5462
       909.90000  2.39084e-12      97.5462
       910.00000  2.39084e-12      97.5223
       910.10000  2.39084e-12      97.5223
       910.20000  2.39084e-12      97.5223
       910.30000  2.39084e-12      97.5462
       910.40000  2.39084e-12      97.5462
       910.50000  3.09544e-12      126.325
       910.60000  3.09544e-12      126.325
       910.70000  3.09544e-12      126.356
       910.80000  3.09544e-12      126.418
       910.90000  3.09544e-12      126.449
       911.00000  3.09544e-12      126.480
       911.10000  3.09544e-12      126.542
       911.20000  3.09544e-12      126.604
       911.30000  3.04609e-12      124.646
       911.40000  3.04609e-12      124.707
       911.50000  2.33364e-12      95.6094
       911.60000  2.33364e-12      95.6561
       911.70000  2.33364e-12      95.7261
       911.80000  2.33364e-12      95.7961
       911.90000  2.33364e-12      95.8661
       912.00000  2.33364e-12      95.9594
       912.10000  2.33364e-12      96.0761
       912.20000  2.33364e-12      96.1695
       912.30000  2.33364e-12      96.2628
       912.40000  2.33364e-12      96.3561
       912.50000  2.21155e-12      91.4035
       912.60000  2.21155e-12      91.4920
       912.70000  2.21155e-12      91.5805
       912.80000  2.21155e-12      91.6468
       912.90000  2.21155e-12      91.7132
       913.00000  2.21155e-12      91.7795
       913.10000  2.21155e-12      91.8459
       913.20000  2.21155e-12      91.8901
       913.30000  2.21155e-12      91.9564
       913.40000  2.21155e-12      92.0007
       913.50000  2.93449e-12      122.133
       913.60000  2.93449e-12      122.192
       913.70000  2.93449e-12      122.222
       913.80000  2.88420e-12      120.156
       913.90000  2.88420e-12      120.213
       914.00000  2.88420e-12      120.242
       914.10000  2.88420e-12      120.184
       914.20000  2.88420e-12      120.156
       914.30000  2.88420e-12      120.127
       914.40000  2.88420e-12      120.098
       914.50000  2.97484e-12      123.842
       914.60000  2.97484e-12      123.783
       914.70000  2.97484e-12      123.753
       914.80000  2.97484e-12      123.723
       914.90000  2.97484e-12      123.694
       915.00000  2.97484e-12      123.664
       915.10000  2.97484e-12      123.634
       915.20000  2.97484e-12      123.604
       915.30000  2.97484e-12      123.575
       915.40000  2.97484e-12      123.545
       915.50000  2.01069e-12      83.4840
       915.60000  2.01069e-12      83.4639
       915.70000  2.01069e-12      83.4438
       915.80000  2.01069e-12      83.4237
       915.90000  2.01069e-12      83.4036
       916.00000  2.01069e-12      83.3835
       916.10000  2.01069e-12      83.3634
       916.20000  2.01069e-12      83.3433
       916.30000  1.97332e-12      81.7744
       916.40000  1.97332e-12      81.7546
       916.50000  2.16509e-12      89.6781
       916.60000  2.16509e-12      89.6781
       916.70000  2.16509e-12      89.6564
       916.80000  2.16509e-12      89.6348
       916.90000  2.16509e-12      89.6131
       917.00000  2.16509e-12      89.5915
       917.10000  2.16509e-12      89.5915
       917.20000  2.16509e-12      89.5698
       917.30000  2.16509e-12      89.5482
       917.40000  2.16509e-12      89.5265
       917.50000  2.27699e-12      94.1536
       917.60000  2.27699e-12      94.1308
       917.70000  2.27699e-12      94.1080
       917.80000  2.27699e-12      94.1080
       917.90000  2.27699e-12      94.0853
       918.00000  2.27699e-12      94.0625
       918.10000  2.27699e-12      94.1080
       918.20000  2.27699e-12      94.1536
       918.30000  2.27699e-12      94.1991
       918.40000  2.27699e-12      94.2219
       918.50000  2.27122e-12      94.0058
       918.60000  2.27122e-12      94.0285
       918.70000  2.27122e-12      94.0285
       918.80000  2.22873e-12      92.2696
       918.90000  2.22873e-12      92.2696
       919.00000  2.22873e-12      92.2696
       919.10000  2.22873e-12      92.2473
       919.20000  2.22873e-12      92.2250
       919.30000  2.22873e-12      92.2028
       919.40000  2.22873e-12      92.1582
       919.50000  1.37251e-12      56.7258
       919.60000  1.37251e-12      56.6984
       919.70000  1.37251e-12      56.6709
       919.80000  1.37251e-12      56.6297
       919.90000  1.37251e-12      56.6023
       920.00000  1.37251e-12      56.5611
       920.10000  1.37251e-12      56.4376
       920.20000  1.37251e-12      56.3278
       920.30000  1.37251e-12      56.2180
       920.40000  1.37251e-12      56.1082
       920.50000  2.22887e-12      90.9378
       920.60000  2.22887e-12      90.7818
       920.70000  2.22887e-12      90.6257
       920.80000  2.22887e-12      90.4920
       920.90000  2.22887e-12      90.3360
       921.00000  2.22887e-12      90.2023
       921.10000  2.22887e-12      90.0685
       921.20000  2.22887e-12      89.9571
       921.30000  2.18606e-12      88.0984
       921.40000  2.18606e-12      87.9891
       921.50000  1.92842e-12      77.5223
       921.60000  1.92842e-12      77.4452
       921.70000  1.92842e-12      77.3681
       921.80000  1.92842e-12      77.2909
       921.90000  1.92842e-12      77.2138
       922.00000  1.92842e-12      77.1559
       922.10000  1.92842e-12      77.0788
       922.20000  1.92842e-12      77.0402
       922.30000  1.92842e-12      76.9824
       922.40000  1.92842e-12      76.9438
       922.50000  2.40044e-12      95.7054
       922.60000  2.40044e-12      95.6814
       922.70000  2.40044e-12      95.6334
       922.80000  2.40044e-12      95.6094
       922.90000  2.40044e-12      95.5854
       923.00000  2.40044e-12      95.5614
       923.10000  2.40044e-12      95.5614
       923.20000  2.40044e-12      95.5373
       923.30000  2.40044e-12      95.5373
       923.40000  2.40044e-12      95.5614
       923.50000  2.34682e-12      93.4267
       923.60000  2.34682e-12      93.4502
       923.70000  2.34682e-12      93.4737
       923.80000  2.30115e-12      91.7009
       923.90000  2.30115e-12      91.7239
       924.00000  2.30115e-12      91.7699
       924.10000  2.30115e-12      91.7699
       924.20000  2.30115e-12      91.7699
       924.30000  2.30115e-12      91.7699
       924.40000  2.30115e-12      91.7699
       924.50000  1.79919e-12      71.7517
       924.60000  1.79919e-12      71.7517
       924.70000  1.79919e-12      71.7697
       924.80000  1.79919e-12      71.7877
       924.90000  1.79919e-12      71.7877
       925.00000  1.79919e-12      71.8057
       925.10000  1.79919e-12      71.8417
       925.20000  1.79919e-12      71.8597
       925.30000  1.79919e-12      71.8777
       925.40000  1.79919e-12      71.9137
       925.50000  1.51957e-12      60.7677
       925.60000  1.51957e-12      60.7980
       925.70000  1.51957e-12      60.8284
       925.80000  1.51957e-12      60.8588
       925.90000  1.51957e-12      60.8892
       926.00000  1.51957e-12      60.9348
       926.10000  1.51957e-12      61.0260
       926.20000  1.51957e-12      61.1323
       926.30000  1.48996e-12      60.0304
       926.40000  1.48996e-12      60.1198
       926.50000  1.69763e-12      68.6013
       926.60000  1.69763e-12      68.6861
       926.70000  1.69763e-12      68.7710
       926.80000  1.69763e-12      68.8559
       926.90000  1.69763e-12      68.9408
       927.00000  1.69763e-12      69.0087
       927.10000  1.69763e-12      69.0766
       927.20000  1.69763e-12      69.1445
       927.30000  1.69763e-12      69.1954
       927.40000  1.69763e-12      69.2464
       927.50000  1.90513e-12      77.7675
       927.60000  1.90513e-12      77.8056
       927.70000  1.90513e-12      77.8628
       927.80000  1.90513e-12      77.9009
       927.90000  1.90513e-12      77.9199
       928.00000  1.90513e-12      77.9390
       928.10000  1.90513e-12      77.9009
       928.20000  1.90513e-12      77.8628
       928.30000  1.90513e-12      77.8056
       928.40000  1.90513e-12      77.7675
       928.50000  1.57708e-12      64.3447
       928.60000  1.57708e-12      64.3132
       928.70000  1.57708e-12      64.2816
       928.80000  1.54657e-12      63.0072
       928.90000  1.54657e-12      62.9762
       929.00000  1.54657e-12      62.9608
       929.10000  1.54657e-12      62.9298
       929.20000  1.54657e-12      62.8989
       929.30000  1.54657e-12      62.8834
       929.40000  1.54657e-12      62.8525
       929.50000  2.13507e-12      86.7481
       929.60000  2.13507e-12      86.7267
       929.70000  2.13507e-12      86.6840
       929.80000  2.13507e-12      86.6627
       929.90000  2.13507e-12      86.6413
       930.00000  2.13507e-12      86.6200
       930.10000  2.13507e-12      86.6200
       930.20000  2.13507e-12      86.6200
       930.30000  2.13507e-12      86.5986
       930.40000  2.13507e-12      86.5986
       930.50000  1.61674e-12      65.5751
       930.60000  1.61674e-12      65.5751
       930.70000  1.61674e-12      65.5590
       930.80000  1.61674e-12      65.5590
       930.90000  1.61674e-12      65.5590
       931.00000  1.61674e-12      65.5590
       931.10000  1.61674e-12      65.5590
       931.20000  1.61674e-12      65.5428
       931.30000  1.58717e-12      64.3440
       931.40000  1.58717e-12      64.3440
       931.50000  1.55054e-12      62.8590
       931.60000  1.55054e-12      62.8590
       931.70000  1.55054e-12      62.8590
       931.80000  1.55054e-12      62.8590
       931.90000  1.55054e-12      62.8590
       932.00000  1.55054e-12      62.8590
       932.10000  1.55054e-12      62.8590
       932.20000  1.55054e-12      62.8590
       932.30000  1.55054e-12      62.8590
       932.40000  1.55054e-12      62.8590
       932.50000  1.42374e-12      57.7185
       932.60000  1.42374e-12      57.7185
       932.70000  1.42374e-12      57.7185
       932.80000  1.42374e-12      57.7328
       932.90000  1.42374e-12      57.7328
       933.00000  1.42374e-12      57.7328
       933.10000  1.42374e-12      57.7328
       933.20000  1.42374e-12      57.7328
       933.30000  1.42374e-12      57.7470
       933.40000  1.42374e-12      57.7470
       933.50000  1.45869e-12      59.1644
       933.60000  1.45869e-12      59.1790
       933.70000  1.45869e-12      59.1790
       933.80000  1.43396e-12      58.1756
       933.90000  1.43396e-12      58.1900
       934.00000  1.43396e-12      58.1900
       934.10000  1.43396e-12      58.1470
       934.20000  1.43396e-12      58.1039
       934.30000  1.43396e-12      58.0609
       934.40000  1.43396e-12      58.0179
       934.50000  1.68812e-12      68.2505
       934.60000  1.68812e-12      68.2167
       934.70000  1.68812e-12      68.1830
       934.80000  1.68812e-12      68.1323
       934.90000  1.68812e-12      68.0986
       935.00000  1.68812e-12      68.0817
       935.10000  1.68812e-12      68.0479
       935.20000  1.68812e-12      68.0142
       935.30000  1.68812e-12      67.9973
       935.40000  1.68812e-12      67.9804
       935.50000  1.70210e-12      68.5267
       935.60000  1.70210e-12      68.5097
       935.70000  1.70210e-12      68.4927
       935.80000  1.70210e-12      68.4757
       935.90000  1.70210e-12      68.4757
       936.00000  1.70210e-12      68.4587
       936.10000  1.70210e-12      68.5097
       936.20000  1.70210e-12      68.5608
       936.30000  1.67411e-12      67.4836
       936.40000  1.67411e-12      67.5338
       936.50000  1.44769e-12      58.4289
       936.60000  1.44769e-12      58.4578
       936.70000  1.44769e-12      58.4868
       936.80000  1.44769e-12      58.5157
       936.90000  1.44769e-12      58.5302
       937.00000  1.44769e-12      58.5592
       937.10000  1.44769e-12      58.5736
       937.20000  1.44769e-12      58.5881
       937.30000  1.44769e-12      58.5881
       937.40000  1.44769e-12      58.6026
       937.50000  1.25440e-12      50.7780
       937.60000  1.25440e-12      50.7780
       937.70000  1.25440e-12      50.7780
       937.80000  1.25440e-12      50.7780
       937.90000  1.25440e-12      50.7654
       938.00000  1.25440e-12      50.7654
       938.10000  1.25440e-12      50.7529
       938.20000  1.25440e-12      50.7278
       938.30000  1.25440e-12      50.7153
       938.40000  1.25440e-12      50.6902
       938.50000  1.68659e-12      68.1381
       938.60000  1.68659e-12      68.1044
       938.70000  1.68659e-12      68.0538
       938.80000  1.66030e-12      66.9597
       938.90000  1.66030e-12      66.9099
       939.00000  1.66030e-12      66.8767
       939.10000  1.66030e-12      66.8269
       939.20000  1.66030e-12      66.7605
       939.30000  1.66030e-12      66.7107
       939.40000  1.66030e-12      66.6442
       939.50000  1.31937e-12      52.9069
       939.60000  1.31937e-12      52.8541
       939.70000  1.31937e-12      52.8013
       939.80000  1.31937e-12      52.7486
       939.90000  1.31937e-12      52.6826
       940.00000  1.31937e-12      52.6166
       940.10000  1.31937e-12      52.5243
       940.20000  1.31937e-12      52.4319
       940.30000  1.31937e-12      52.3527
       940.40000  1.31937e-12      52.2736
       940.50000  1.10319e-12      43.6424
       940.60000  1.10319e-12      43.5872
       940.70000  1.10319e-12      43.5320
       940.80000  1.10319e-12      43.4769
       940.90000  1.10319e-12      43.4217
       941.00000  1.10319e-12      43.3776
       941.10000  1.10319e-12      43.3335
       941.20000  1.10319e-12      43.3004
       941.30000  1.08675e-12      42.6225
       941.40000  1.08675e-12      42.5898
       941.50000  1.25998e-12      49.3408
       941.60000  1.25998e-12      49.3156
       941.70000  1.25998e-12      49.2904
       941.80000  1.25998e-12      49.2652
       941.90000  1.25998e-12      49.2400
       942.00000  1.25998e-12      49.2274
       942.10000  1.25998e-12      49.2652
       942.20000  1.25998e-12      49.2904
       942.30000  1.25998e-12      49.3282
       942.40000  1.25998e-12      49.3534
       942.50000  1.59405e-12      62.4707
       942.60000  1.59405e-12      62.5185
       942.70000  1.59405e-12      62.5504
       942.80000  1.59405e-12      62.5823
       942.90000  1.59405e-12      62.6142
       943.00000  1.59405e-12      62.6461
       943.10000  1.59405e-12      62.6939
       943.20000  1.59405e-12      62.7258
       943.30000  1.59405e-12      62.7577
       943.40000  1.59405e-12      62.7895
       943.50000  1.11220e-12      43.8319
       943.60000  1.11220e-12      43.8542
       943.70000  1.11220e-12      43.8764
       943.80000  1.09524e-12      43.2292
       943.90000  1.09524e-12      43.2511
       944.00000  1.09524e-12      43.2730
       944.10000  1.09524e-12      43.2949
       944.20000  1.09524e-12      43.3168
       944.30000  1.09524e-12      43.3277
       944.40000  1.09524e-12      43.3496
       944.50000  1.19761e-12      47.4254
       944.60000  1.19761e-12      47.4493
       944.70000  1.19761e-12      47.4613
       944.80000  1.19761e-12      47.4852
       944.90000  1.19761e-12      47.5092
       945.00000  1.19761e-12      47.5212
       945.10000  1.19761e-12      47.5451
       945.20000  1.19761e-12      47.5691
       945.30000  1.19761e-12      47.5810
       945.40000  1.19761e-12      47.6050
       945.50000  1.00619e-12      40.0063
       945.60000  1.00619e-12      40.0264
       945.70000  1.00619e-12      40.0364
       945.80000  1.00619e-12      40.0566
       945.90000  1.00619e-12      40.0666
       946.00000  1.00619e-12      40.0767
       946.10000  1.00619e-12      40.0968
       946.20000  1.00619e-12      40.1169
       946.30000  9.91093e-13      39.5347
       946.40000  9.91093e-13      39.5545
       946.50000  7.97213e-13      31.8327
       946.60000  7.97213e-13      31.8407
       946.70000  7.97213e-13      31.8566
       946.80000  7.97213e-13      31.8646
       946.90000  7.97213e-13      31.8726
       947.00000  7.97213e-13      31.8885
       947.10000  7.97213e-13      31.8965
       947.20000  7.97213e-13      31.9045
       947.30000  7.97213e-13      31.9124
       947.40000  7.97213e-13      31.9204
       947.50000  1.85078e-12      74.1051
       947.60000  1.85078e-12      74.1236
       947.70000  1.85078e-12      74.1421
       947.80000  1.85078e-12      74.1421
       947.90000  1.85078e-12      74.1606
       948.00000  1.85078e-12      74.1606
       948.10000  1.85078e-12      74.1606
       948.20000  1.85078e-12      74.1606
       948.30000  1.85078e-12      74.1421
       948.40000  1.85078e-12      74.1421
       948.50000  1.19427e-12      47.8306
       948.60000  1.19427e-12      47.8306
       948.70000  1.19427e-12      47.8306
       948.80000  1.17509e-12      47.0508
       948.90000  1.17509e-12      47.0508
       949.00000  1.17509e-12      47.0390
       949.10000  1.17509e-12      47.0390
       949.20000  1.17509e-12      47.0273
       949.30000  1.17509e-12      47.0273
       949.40000  1.17509e-12      47.0155
       949.50000  1.26114e-12      50.4580
       949.60000  1.26114e-12      50.4454
       949.70000  1.26114e-12      50.4328
       949.80000  1.26114e-12      50.4328
       949.90000  1.26114e-12      50.4202
       950.00000  1.26114e-12      50.4076
       950.10000  1.26114e-12      50.4076
       950.20000  1.26114e-12      50.3950
       950.30000  1.26114e-12      50.3824
       950.40000  1.26114e-12      50.3824
       950.50000  1.04315e-12      41.6636
       950.60000  1.04315e-12      41.6531
       950.70000  1.04315e-12      41.6427
       950.80000  1.04315e-12      41.6427
       950.90000  1.04315e-12      41.6323
       951.00000  1.04315e-12      41.6218
       951.10000  1.04315e-12      41.6114
       951.20000  1.04315e-12      41.6010
       951.30000  1.02647e-12      40.9354
       951.40000  1.02647e-12      40.9252
       951.50000  5.96891e-13      23.7921
       951.60000  5.96891e-13      23.7861
       951.70000  5.96891e-13      23.7801
       951.80000  5.96891e-13      23.7742
       951.90000  5.96891e-13      23.7682
       952.00000  5.96891e-13      23.7622
       952.10000  5.96891e-13      23.7145
       952.20000  5.96891e-13      23.6667
       952.30000  5.96891e-13      23.6249
       952.40000  5.96891e-13      23.5832
       952.50000  1.31115e-12      51.7117
       952.60000  1.31115e-12      51.6199
       952.70000  1.31115e-12      51.5413
       952.80000  1.31115e-12      51.4626
       952.90000  1.31115e-12      51.3839
       953.00000  1.31115e-12      51.3184
       953.10000  1.31115e-12      51.2528
       953.20000  1.31115e-12      51.1873
       953.30000  1.31115e-12      51.1348
       953.40000  1.31115e-12      51.0693
       953.50000  1.17740e-12      45.8126
       953.60000  1.17740e-12      45.7772
       953.70000  1.17740e-12      45.7301
       953.80000  1.15785e-12      44.9361
       953.90000  1.15785e-12      44.9014
       954.00000  1.15785e-12      44.8782
       954.10000  1.15785e-12      44.8666
       954.20000  1.15785e-12      44.8551
       954.30000  1.15785e-12      44.8551
       954.40000  1.15785e-12      44.8551
       954.50000  8.55252e-13      33.1239
       954.60000  8.55252e-13      33.1239
       954.70000  8.55252e-13      33.1239
       954.80000  8.55252e-13      33.1239
       954.90000  8.55252e-13      33.1325
       955.00000  8.55252e-13      33.1325
       955.10000  8.55252e-13      33.1410
       955.20000  8.55252e-13      33.1410
       955.30000  8.55252e-13      33.1496
       955.40000  8.55252e-13      33.1581
       955.50000  6.62130e-13      25.6774
       955.60000  6.62130e-13      25.6840
       955.70000  6.62130e-13      25.6907
       955.80000  6.62130e-13      25.7039
       955.90000  6.62130e-13      25.7105
       956.00000  6.62130e-13      25.7238
       956.10000  6.62130e-13      25.7370
       956.20000  6.62130e-13      25.7436
       956.30000  6.51321e-13      25.3364
       956.40000  6.51321e-13      25.3559
       956.50000  8.11298e-13      31.6001
       956.60000  8.11298e-13      31.6163
       956.70000  8.11298e-13      31.6406
       956.80000  8.11298e-13      31.6568
       956.90000  8.11298e-13      31.6812
       957.00000  8.11298e-13      31.7055
       957.10000  8.11298e-13      31.7299
       957.20000  8.11298e-13      31.7542
       957.30000  8.11298e-13      31.7867
       957.40000  8.11298e-13      31.8110
       957.50000  8.02279e-13      31.4814
       957.60000  8.02279e-13      31.5135
       957.70000  8.02279e-13      31.5456
       957.80000  8.02279e-13      31.5777
       957.90000  8.02279e-13      31.6098
       958.00000  8.02279e-13      31.6419
       958.10000  8.02279e-13      31.6419
       958.20000  8.02279e-13      31.6339
       958.30000  8.02279e-13      31.6339
       958.40000  8.02279e-13      31.6339
       958.50000  7.26826e-13      28.6588
       958.60000  7.26826e-13      28.6515
       958.70000  7.26826e-13      28.6515
       958.80000  7.14014e-13      28.1464
       958.90000  7.14014e-13      28.1393
       959.00000  7.14014e-13      28.1393
       959.10000  7.14014e-13      28.1321
       959.20000  7.14014e-13      28.1321
       959.30000  7.14014e-13      28.1250
       959.40000  7.14014e-13      28.1179
       959.50000  6.19452e-13      24.3940
       959.60000  6.19452e-13      24.3878
       959.70000  6.19452e-13      24.3878
       959.80000  6.19452e-13      24.3816
       959.90000  6.19452e-13      24.3754
       960.00000  6.19452e-13      24.3692
       960.10000  6.19452e-13      24.3630
       960.20000  6.19452e-13      24.3568
       960.30000  6.19452e-13      24.3506
       960.40000  6.19452e-13      24.3445
       960.50000  9.56257e-13      37.5713
       960.60000  9.56257e-13      37.5618
       960.70000  9.56257e-13      37.5522
       960.80000  9.56257e-13      37.5426
       960.90000  9.56257e-13      37.5331
       961.00000  9.56257e-13      37.5235
       961.10000  9.56257e-13      37.5140
       961.20000  9.56257e-13      37.5044
       961.30000  9.39643e-13      36.8434
       961.40000  9.39643e-13      36.8340
       961.50000  9.24942e-13      36.2485
       961.60000  9.24942e-13      36.2300
       961.70000  9.24942e-13      36.2207
       961.80000  9.24942e-13      36.2115
       961.90000  9.24942e-13      36.2022
       962.00000  9.24942e-13      36.1930
       962.10000  9.24942e-13      36.1745
       962.20000  9.24942e-13      36.1652
       962.30000  9.24942e-13      36.1560
       962.40000  9.24942e-13      36.1375
       962.50000  8.55276e-13      33.4071
       962.60000  8.55276e-13      33.3985
       962.70000  8.55276e-13      33.3814
       962.80000  8.55276e-13      33.3729
       962.90000  8.55276e-13      33.3558
       963.00000  8.55276e-13      33.3472
       963.10000  8.55276e-13      33.3386
       963.20000  8.55276e-13      33.3215
       963.30000  8.55276e-13      33.3130
       963.40000  8.55276e-13      33.2959
       963.50000  9.13586e-13      35.5568
       963.60000  9.13586e-13      35.5385
       963.70000  9.13586e-13      35.5294
       963.80000  8.96995e-13      34.8662
       963.90000  8.96995e-13      34.8483
       964.00000  8.96995e-13      34.8393
       964.10000  8.96995e-13      34.8213
       964.20000  8.96995e-13      34.7944
       964.30000  8.96995e-13      34.7765
       964.40000  8.96995e-13      34.7675
       964.50000  1.01653e-12      39.3804
       964.60000  1.01653e-12      39.3601
       964.70000  1.01653e-12      39.3499
       964.80000  1.01653e-12      39.3296
       964.90000  1.01653e-12      39.3194
       965.00000  1.01653e-12      39.2991
       965.10000  1.01653e-12      39.2889
       965.20000  1.01653e-12      39.2788
       965.30000  1.01653e-12      39.2686
       965.40000  1.01653e-12      39.2686
       965.50000  8.01537e-13      30.9554
       965.60000  8.01537e-13      30.9473
       965.70000  8.01537e-13      30.9473
       965.80000  8.01537e-13      30.9393
       965.90000  8.01537e-13      30.9393
       966.00000  8.01537e-13      30.9393
       966.10000  8.01537e-13      30.9473
       966.20000  8.01537e-13      30.9554
       966.30000  7.86714e-13      30.3986
       966.40000  7.86714e-13      30.4065
       966.50000  8.51210e-13      32.9078
       966.60000  8.51210e-13      32.9163
       966.70000  8.51210e-13      32.9248
       966.80000  8.51210e-13      32.9333
       966.90000  8.51210e-13      32.9418
       967.00000  8.51210e-13      32.9503
       967.10000  8.51210e-13      32.9589
       967.20000  8.51210e-13      32.9674
       967.30000  8.51210e-13      32.9759
       967.40000  8.51210e-13      32.9844
       967.50000  7.04383e-13      27.2949
       967.60000  7.04383e-13      27.3019
       967.70000  7.04383e-13      27.3089
       967.80000  7.04383e-13      27.3089
       967.90000  7.04383e-13      27.3160
       968.00000  7.04383e-13      27.3230
       968.10000  7.04383e-13      27.3230
       968.20000  7.04383e-13      27.3301
       968.30000  7.04383e-13      27.3301
       968.40000  7.04383e-13      27.3301
       968.50000  5.82727e-13      22.6157
       968.60000  5.82727e-13      22.6157
       968.70000  5.82727e-13      22.6157
       968.80000  5.71930e-13      22.2023
       968.90000  5.71930e-13      22.2023
       969.00000  5.71930e-13      22.2023
       969.10000  5.71930e-13      22.2023
       969.20000  5.71930e-13      22.2023
       969.30000  5.71930e-13      22.2023
       969.40000  5.71930e-13      22.2023
       969.50000  6.84621e-13      26.5770
       969.60000  6.84621e-13      26.5770
       969.70000  6.84621e-13      26.5770
       969.80000  6.84621e-13      26.5770
       969.90000  6.84621e-13      26.5770
       970.00000  6.84621e-13      26.5770
       970.10000  6.84621e-13      26.5838
       970.20000  6.84621e-13      26.5907
       970.30000  6.84621e-13      26.5907
       970.40000  6.84621e-13      26.5975
       970.50000  7.15259e-13      27.7878
       970.60000  7.15259e-13      27.7950
       970.70000  7.15259e-13      27.7950
       970.80000  7.15259e-13      27.7950
       970.90000  7.15259e-13      27.7950
       971.00000  7.15259e-13      27.7950
       971.10000  7.15259e-13      27.7950
       971.20000  7.15259e-13      27.7878
       971.30000  7.02035e-13      27.2741
       971.40000  7.02035e-13      27.2671
       971.50000  7.76244e-13      30.1493
       971.60000  7.76244e-13      30.1416
       971.70000  7.76244e-13      30.1338
       971.80000  7.76244e-13      30.1260
       971.90000  7.76244e-13      30.1183
       972.00000  7.76244e-13      30.1028
       972.10000  7.76244e-13      30.0717
       972.20000  7.76244e-13      30.0407
       972.30000  7.76244e-13      30.0174
       972.40000  7.76244e-13      29.9863
       972.50000  5.86378e-13      22.6342
       972.60000  5.86378e-13      22.6108
       972.70000  5.86378e-13      22.5932
       972.80000  5.86378e-13      22.5756
       972.90000  5.86378e-13      22.5580
       973.00000  5.86378e-13      22.5462
       973.10000  5.86378e-13      22.5287
       973.20000  5.86378e-13      22.5169
       973.30000  5.86378e-13      22.5052
       973.40000  5.86378e-13      22.4935
       973.50000  6.70995e-13      25.7259
       973.60000  6.70995e-13      25.7125
       973.70000  6.70995e-13      25.7058
       973.80000  6.57924e-13      25.1919
       973.90000  6.57924e-13      25.1853
       974.00000  6.57924e-13      25.1788
       974.10000  6.57924e-13      25.1853
       974.20000  6.57924e-13      25.1985
       974.30000  6.57924e-13      25.2051
       974.40000  6.57924e-13      25.2117
       974.50000  7.48729e-13      28.6988
       974.60000  7.48729e-13      28.7063
       974.70000  7.48729e-13      28.7138
       974.80000  7.48729e-13      28.7213
       974.90000  7.48729e-13      28.7213
       975.00000  7.48729e-13      28.7287
       975.10000  7.48729e-13      28.7362
       975.20000  7.48729e-13      28.7362
       975.30000  7.48729e-13      28.7437
       975.40000  7.48729e-13      28.7437
       975.50000  6.99840e-13      26.8669
       975.60000  6.99840e-13      26.8738
       975.70000  6.99840e-13      26.8738
       975.80000  6.99840e-13      26.8738
       975.90000  6.99840e-13      26.8738
       976.00000  6.99840e-13      26.8738
       976.10000  6.99840e-13      26.8669
       976.20000  6.99840e-13      26.8599
       976.30000  6.86457e-13      26.3394
       976.40000  6.86457e-13      26.3325
       976.50000  5.60336e-13      21.4945
       976.60000  5.60336e-13      21.4889
       976.70000  5.60336e-13      21.4833
       976.80000  5.60336e-13      21.4777
       976.90000  5.60336e-13      21.4777
       977.00000  5.60336e-13      21.4721
       977.10000  5.60336e-13      21.4665
       977.20000  5.60336e-13      21.4609
       977.30000  5.60336e-13      21.4609
       977.40000  5.60336e-13      21.4553
       977.50000  8.17815e-13      31.3060
       977.60000  8.17815e-13      31.3060
       977.70000  8.17815e-13      31.2978
       977.80000  8.17815e-13      31.2896
       977.90000  8.17815e-13      31.2896
       978.00000  8.17815e-13      31.2814
       978.10000  8.17815e-13      31.2814
       978.20000  8.17815e-13      31.2732
       978.30000  8.17815e-13      31.2732
       978.40000  8.17815e-13      31.2651
       978.50000  5.69892e-13      21.7813
       978.60000  5.69892e-13      21.7813
       978.70000  5.69892e-13      21.7813
       978.80000  5.58800e-13      21.3517
       978.90000  5.58800e-13      21.3517
       979.00000  5.58800e-13      21.3462
       979.10000  5.58800e-13      21.3462
       979.20000  5.58800e-13      21.3406
       979.30000  5.58800e-13      21.3406
       979.40000  5.58800e-13      21.3406
       979.50000  3.82097e-13      14.5885
       979.60000  3.82097e-13      14.5885
       979.70000  3.82097e-13      14.5885
       979.80000  3.82097e-13      14.5846
       979.90000  3.82097e-13      14.5846
       980.00000  3.82097e-13      14.5846
       980.10000  3.82097e-13      14.5923
       980.20000  3.82097e-13      14.5961
       980.30000  3.82097e-13      14.6037
       980.40000  3.82097e-13      14.6076
       980.50000  4.93832e-13      18.8891
       980.60000  4.93832e-13      18.8940
       980.70000  4.93832e-13      18.8989
       980.80000  4.93832e-13      18.9039
       980.90000  4.93832e-13      18.9088
       981.00000  4.93832e-13      18.9138
       981.10000  4.93832e-13      18.9187
       981.20000  4.93832e-13      18.9236
       981.30000  4.83839e-13      18.5407
       981.40000  4.83839e-13      18.5455
       981.50000  5.07068e-13      19.4359
       981.60000  5.07068e-13      19.4359
       981.70000  5.07068e-13      19.4410
       981.80000  5.07068e-13      19.4410
       981.90000  5.07068e-13      19.4410
       982.00000  5.07068e-13      19.4359
       982.10000  5.07068e-13      19.4309
       982.20000  5.07068e-13      19.4207
       982.30000  5.07068e-13      19.4156
       982.40000  5.07068e-13      19.4055
       982.50000  4.57268e-13      17.4951
       982.60000  4.57268e-13      17.4859
       982.70000  4.57268e-13      17.4814
       982.80000  4.57268e-13      17.4768
       982.90000  4.57268e-13      17.4676
       983.00000  4.57268e-13      17.4631
       983.10000  4.57268e-13      17.4585
       983.20000  4.57268e-13      17.4539
       983.30000  4.57268e-13      17.4494
       983.40000  4.57268e-13      17.4402
       983.50000  4.64176e-13      17.6990
       983.60000  4.64176e-13      17.6944
       983.70000  4.64176e-13      17.6898
       983.80000  4.55021e-13      17.3363
       983.90000  4.55021e-13      17.3318
       984.00000  4.55021e-13      17.3272
       984.10000  4.55021e-13      17.3272
       984.20000  4.55021e-13      17.3227
       984.30000  4.55021e-13      17.3181
       984.40000  4.55021e-13      17.3136
       984.50000  5.56000e-13      21.1558
       984.60000  5.56000e-13      21.1503
       984.70000  5.56000e-13      21.1447
       984.80000  5.56000e-13      21.1447
       984.90000  5.56000e-13      21.1391
       985.00000  5.56000e-13      21.1336
       985.10000  5.56000e-13      21.1336
       985.20000  5.56000e-13      21.1280
       985.30000  5.56000e-13      21.1280
       985.40000  5.56000e-13      21.1280
       985.50000  4.82589e-13      18.3335
       985.60000  4.82589e-13      18.3335
       985.70000  4.82589e-13      18.3335
       985.80000  4.82589e-13      18.3287
       985.90000  4.82589e-13      18.3287
       986.00000  4.82589e-13      18.3287
       986.10000  4.82589e-13      18.3239
       986.20000  4.82589e-13      18.3239
       986.30000  4.73077e-13      17.9627
       986.40000  4.73077e-13      17.9580
       986.50000  3.56565e-13      13.5316
       986.60000  3.56565e-13      13.5316
       986.70000  3.56565e-13      13.5281
       986.80000  3.56565e-13      13.5281
       986.90000  3.56565e-13      13.5245
       987.00000  3.56565e-13      13.5209
       987.10000  3.56565e-13      13.5174
       987.20000  3.56565e-13      13.5174
       987.30000  3.56565e-13      13.5138
       987.40000  3.56565e-13      13.5102
       987.50000  3.38157e-13      12.8094
       987.60000  3.38157e-13      12.8060
       987.70000  3.38157e-13      12.8026
       987.80000  3.38157e-13      12.7992
       987.90000  3.38157e-13      12.7959
       988.00000  3.38157e-13      12.7925
       988.10000  3.38157e-13      12.7823
       988.20000  3.38157e-13      12.7756
       988.30000  3.38157e-13      12.7654
       988.40000  3.38157e-13      12.7587
       988.50000  5.21771e-13      19.6760
       988.60000  5.21771e-13      19.6656
       988.70000  5.21771e-13      19.6551
       988.80000  5.11605e-13      19.2619
       988.90000  5.11605e-13      19.2517
       989.00000  5.11605e-13      19.2466
       989.10000  5.11605e-13      19.2415
       989.20000  5.11605e-13      19.2312
       989.30000  5.11605e-13      19.2261
       989.40000  5.11605e-13      19.2210
       989.50000  4.67536e-13      17.5607
       989.60000  4.67536e-13      17.5560
       989.70000  4.67536e-13      17.5560
       989.80000  4.67536e-13      17.5513
       989.90000  4.67536e-13      17.5513
       990.00000  4.67536e-13      17.5513
       990.10000  4.67536e-13      17.5466
       990.20000  4.67536e-13      17.5466
       990.30000  4.67536e-13      17.5513
       990.40000  4.67536e-13      17.5513
       990.50000  3.73021e-13      14.0032
       990.60000  3.73021e-13      14.0069
       990.70000  3.73021e-13      14.0069
       990.80000  3.73021e-13      14.0107
       990.90000  3.73021e-13      14.0144
       991.00000  3.73021e-13      14.0181
       991.10000  3.73021e-13      14.0219
       991.20000  3.73021e-13      14.0256
       991.30000  3.66108e-13      13.7693
       991.40000  3.66108e-13      13.7767
       991.50000  4.37029e-13      16.4498
       991.60000  4.37029e-13      16.4585
       991.70000  4.37029e-13      16.4673
       991.80000  4.37029e-13      16.4760
       991.90000  4.37029e-13      16.4847
       992.00000  4.37029e-13      16.4935
       992.10000  4.37029e-13      16.4978
       992.20000  4.37029e-13      16.4978
       992.30000  4.37029e-13      16.4978
       992.40000  4.37029e-13      16.4978
       992.50000  1.86146e-13      7.02887
       992.60000  1.86146e-13      7.02887
       992.70000  1.86146e-13      7.02887
       992.80000  1.86146e-13      7.02887
       992.90000  1.86146e-13      7.02887
       993.00000  1.86146e-13      7.03073
       993.10000  1.86146e-13      7.03073
       993.20000  1.86146e-13      7.03073
       993.30000  1.86146e-13      7.03073
       993.40000  1.86146e-13      7.03073
       993.50000  3.32731e-13      12.5673
       993.60000  3.32731e-13      12.5673
       993.70000  3.32731e-13      12.5673
       993.80000  3.26989e-13      12.3504
       993.90000  3.26989e-13      12.3471
       994.00000  3.26989e-13      12.3471
       994.10000  3.26989e-13      12.3471
       994.20000  3.26989e-13      12.3438
       994.30000  3.26989e-13      12.3438
       994.40000  3.26989e-13      12.3406
       994.50000  3.90380e-13      14.7330
       994.60000  3.90380e-13      14.7291
       994.70000  3.90380e-13      14.7291
       994.80000  3.90380e-13      14.7252
       994.90000  3.90380e-13      14.7252
       995.00000  3.90380e-13      14.7212
       995.10000  3.90380e-13      14.7212
       995.20000  3.90380e-13      14.7212
       995.30000  3.90380e-13      14.7173
       995.40000  3.90380e-13      14.7173
       995.50000  3.13476e-13      11.8180
       995.60000  3.13476e-13      11.8149
       995.70000  3.13476e-13      11.8149
       995.80000  3.13476e-13      11.8149
       995.90000  3.13476e-13      11.8149
       996.00000  3.13476e-13      11.8118
       996.10000  3.13476e-13      11.8149
       996.20000  3.13476e-13      11.8149
       996.30000  3.08222e-13      11.6169
       996.40000  3.08222e-13      11.6169
       996.50000  3.49160e-13      13.1599
       996.60000  3.49160e-13      13.1599
       996.70000  3.49160e-13      13.1599
       996.80000  3.49160e-13      13.1599
       996.90000  3.49160e-13      13.1599
       997.00000  3.49160e-13      13.1599
       997.10000  3.49160e-13      13.1599
       997.20000  3.49160e-13      13.1599
       997.30000  3.49160e-13      13.1599
       997.40000  3.49160e-13      13.1599
       997.50000  2.96527e-13      11.1761
       997.60000  2.96527e-13      11.1761
       997.70000  2.96527e-13      11.1761
       997.80000  2.96527e-13      11.1761
       997.90000  2.96527e-13      11.1761
       998.00000  2.96527e-13      11.1731
       998.10000  2.96527e-13      11.1731
       998.20000  2.96527e-13      11.1702
       998.30000  2.96527e-13      11.1702
       998.40000  2.96527e-13      11.1672
       998.50000  2.24207e-13      8.44140
       998.60000  2.24207e-13      8.44140
       998.70000  2.24207e-13      8.43915
       998.80000  2.20790e-13      8.31053
       998.90000  2.20790e-13      8.31053
       999.00000  2.20790e-13      8.30832
       999.10000  2.20790e-13      8.30832
       999.20000  2.20790e-13      8.30611
       999.30000  2.20790e-13      8.30611
       999.40000  2.20790e-13      8.30611
       999.50000  2.56816e-13      9.65884
       999.60000  2.56816e-13      9.65884
       999.70000  2.56816e-13      9.65884
       999.80000  2.56816e-13      9.65884
       999.90000  2.56816e-13      9.65884
       1000.0000  2.56816e-13      9.65628
       1000.1000  2.56816e-13      9.65628
       1000.2000  2.56816e-13      9.65628
       1000.3000  2.56816e-13      9.65628
       1000.4000  2.56816e-13      9.65628
       1000.5000  2.11012e-13      7.93407
       1000.6000  2.11012e-13      7.93407
       1000.7000  2.11012e-13      7.93407
       1000.8000  2.11012e-13      7.93407
       1000.9000  2.11012e-13      7.93407
       1001.0000  2.11012e-13      7.93407
       1001.1000  2.11012e-13      7.93407
       1001.2000  2.11012e-13      7.93618
       1001.3000  2.07898e-13      7.81904
       1001.4000  2.07898e-13      7.81904
       1001.5000  2.50480e-13      9.42054
       1001.6000  2.50480e-13      9.42054
       1001.7000  2.50480e-13      9.42305
       1001.8000  2.50480e-13      9.42305
       1001.9000  2.50480e-13      9.42305
       1002.0000  2.50480e-13      9.42555
       1002.1000  2.50480e-13      9.41052
       1002.2000  2.50480e-13      9.39549
       1002.3000  2.50480e-13      9.38297
       1002.4000  2.50480e-13      9.36794
       1002.5000  2.76562e-13      10.3296
       1002.6000  2.76562e-13      10.3130
       1002.7000  2.76562e-13      10.2992
       1002.8000  2.76562e-13      10.2854
       1002.9000  2.76562e-13      10.2715
       1003.0000  2.76562e-13      10.2577
       1003.1000  2.76562e-13      10.2439
       1003.2000  2.76562e-13      10.2300
       1003.3000  2.76562e-13      10.2190
       1003.4000  2.76562e-13      10.2052
       1003.5000  2.91336e-13      10.7386
       1003.6000  2.91336e-13      10.7270
       1003.7000  2.91336e-13      10.7124
       1003.8000  2.87367e-13      10.5550
       1003.9000  2.87367e-13      10.5435
       1004.0000  2.87367e-13      10.5320
       1004.1000  2.87367e-13      10.5148
       1004.2000  2.87367e-13      10.4947
       1004.3000  2.87367e-13      10.4803
       1004.4000  2.87367e-13      10.4630
       1004.5000  2.05026e-13      7.45475
       1004.6000  2.05026e-13      7.44450
       1004.7000  2.05026e-13      7.43630
       1004.8000  2.05026e-13      7.42810
       1004.9000  2.05026e-13      7.42195
       1005.0000  2.05026e-13      7.41580
       1005.1000  2.05026e-13      7.40964
       1005.2000  2.05026e-13      7.40554
       1005.3000  2.05026e-13      7.40144
       1005.4000  2.05026e-13      7.39939
       1005.5000  2.27590e-13      8.21144
       1005.6000  2.27590e-13      8.20916
       1005.7000  2.27590e-13      8.20916
       1005.8000  2.27590e-13      8.21144
       1005.9000  2.27590e-13      8.21144
       1006.0000  2.27590e-13      8.21371
       1006.1000  2.27590e-13      8.21827
       1006.2000  2.27590e-13      8.22282
       1006.3000  2.24694e-13      8.12270
       1006.4000  2.24694e-13      8.12944
       1006.5000  1.71367e-13      6.20521
       1006.6000  1.71367e-13      6.21206
       1006.7000  1.71367e-13      6.21892
       1006.8000  1.71367e-13      6.22577
       1006.9000  1.71367e-13      6.23434
       1007.0000  1.71367e-13      6.24291
       1007.1000  1.71367e-13      6.25319
       1007.2000  1.71367e-13      6.26347
       1007.3000  1.71367e-13      6.27376
       1007.4000  1.71367e-13      6.28575
       1007.5000  1.75308e-13      6.44256
       1007.6000  1.75308e-13      6.45658
       1007.7000  1.75308e-13      6.47061
       1007.8000  1.75308e-13      6.48463
       1007.9000  1.75308e-13      6.50041
       1008.0000  1.75308e-13      6.51619
       1008.1000  1.75308e-13      6.51794
       1008.2000  1.75308e-13      6.51794
       1008.3000  1.75308e-13      6.51794
       1008.4000  1.75308e-13      6.51794
       1008.5000  1.80911e-13      6.72627
       1008.6000  1.80911e-13      6.72627
       1008.7000  1.80911e-13      6.72627
       1008.8000  1.78794e-13      6.64754
       1008.9000  1.78794e-13      6.64754
       1009.0000  1.78794e-13      6.64575
       1009.1000  1.78794e-13      6.64575
       1009.2000  1.78794e-13      6.64575
       1009.3000  1.78794e-13      6.64575
       1009.4000  1.78794e-13      6.64397
       1009.5000  2.23408e-13      8.30186
       1009.6000  2.23408e-13      8.30186
       1009.7000  2.23408e-13      8.29963
       1009.8000  2.23408e-13      8.29963
       1009.9000  2.23408e-13      8.29739
       1010.0000  2.23408e-13      8.29739
       1010.1000  2.23408e-13      8.29516
       1010.2000  2.23408e-13      8.29292
       1010.3000  2.23408e-13      8.29069
       1010.4000  2.23408e-13      8.28846
       1010.5000  2.31096e-13      8.57136
       1010.6000  2.31096e-13      8.56905
       1010.7000  2.31096e-13      8.56674
       1010.8000  2.31096e-13      8.56443
       1010.9000  2.31096e-13      8.56211
       1011.0000  2.31096e-13      8.55980
       1011.1000  2.31096e-13      8.55980
       1011.2000  2.31096e-13      8.55749
       1011.3000  2.28547e-13      8.46081
       1011.4000  2.28547e-13      8.45852
       1011.5000  2.03578e-13      7.53239
       1011.6000  2.03578e-13      7.53036
       1011.7000  2.03578e-13      7.52832
       1011.8000  2.03578e-13      7.52629
       1011.9000  2.03578e-13      7.52425
       1012.0000  2.03578e-13      7.52221
       1012.1000  2.03578e-13      7.52018
       1012.2000  2.03578e-13      7.51814
       1012.3000  2.03578e-13      7.51611
       1012.4000  2.03578e-13      7.51407
       1012.5000  2.85831e-13      10.5472
       1012.6000  2.85831e-13      10.5443
       1012.7000  2.85831e-13      10.5415
       1012.8000  2.85831e-13      10.5386
       1012.9000  2.85831e-13      10.5386
       1013.0000  2.85831e-13      10.5357
       1013.1000  2.85831e-13      10.5329
       1013.2000  2.85831e-13      10.5300
       1013.3000  2.85831e-13      10.5272
       1013.4000  2.85831e-13      10.5243
       1013.5000  1.56232e-13      5.75091
       1013.6000  1.56232e-13      5.74935
       1013.7000  1.56232e-13      5.74779
       1013.8000  1.54626e-13      5.68714
       1013.9000  1.54626e-13      5.68559
       1014.0000  1.54626e-13      5.68404
       1014.1000  1.54626e-13      5.68095
       1014.2000  1.54626e-13      5.67786
       1014.3000  1.54626e-13      5.67477
       1014.4000  1.54626e-13      5.67167
       1014.5000  1.22033e-13      4.47495
       1014.6000  1.22033e-13      4.47251
       1014.7000  1.22033e-13      4.47007
       1014.8000  1.22033e-13      4.46885
       1014.9000  1.22033e-13      4.46641
       1015.0000  1.22033e-13      4.46519
       1015.1000  1.22033e-13      4.46274
       1015.2000  1.22033e-13      4.46152
       1015.3000  1.22033e-13      4.46030
       1015.4000  1.22033e-13      4.45786
       1015.5000  1.47726e-13      5.39497
       1015.6000  1.47726e-13      5.39349
       1015.7000  1.47726e-13      5.39202
       1015.8000  1.47726e-13      5.39054
       1015.9000  1.47726e-13      5.38906
       1016.0000  1.47726e-13      5.38758
       1016.1000  1.47726e-13      5.38758
       1016.2000  1.47726e-13      5.38758
       1016.3000  1.46323e-13      5.33639
       1016.4000  1.46323e-13      5.33493
       1016.5000  1.49663e-13      5.45672
       1016.6000  1.49663e-13      5.45672
       1016.7000  1.49663e-13      5.45672
       1016.8000  1.49663e-13      5.45522
       1016.9000  1.49663e-13      5.45522
       1017.0000  1.49663e-13      5.45373
       1017.1000  1.49663e-13      5.45373
       1017.2000  1.49663e-13      5.45223
       1017.3000  1.49663e-13      5.45223
       1017.4000  1.49663e-13      5.45073
       1017.5000  1.71969e-13      6.26311
       1017.6000  1.71969e-13      6.26139
       1017.7000  1.71969e-13      6.25967
       1017.8000  1.71969e-13      6.25795
       1017.9000  1.71969e-13      6.25623
       1018.0000  1.71969e-13      6.25623
       1018.1000  1.71969e-13      6.25279
       1018.2000  1.71969e-13      6.24935
       1018.3000  1.71969e-13      6.24591
       1018.4000  1.71969e-13      6.24247
       1018.5000  1.43994e-13      5.22555
       1018.6000  1.43994e-13      5.22267
       1018.7000  1.43994e-13      5.22123
       1018.8000  1.42676e-13      5.17056
       1018.9000  1.42676e-13      5.16914
       1019.0000  1.42676e-13      5.16628
       1019.1000  1.42676e-13      5.16486
       1019.2000  1.42676e-13      5.16343
       1019.3000  1.42676e-13      5.16200
       1019.4000  1.42676e-13      5.15915
       1019.5000  1.33355e-13      4.82080
       1019.6000  1.33355e-13      4.81947
       1019.7000  1.33355e-13      4.81813
       1019.8000  1.33355e-13      4.81813
       1019.9000  1.33355e-13      4.81680
       1020.0000  1.33355e-13      4.81547
       1020.1000  1.33355e-13      4.81413
       1020.2000  1.33355e-13      4.81280
       1020.3000  1.33355e-13      4.81280
       1020.4000  1.33355e-13      4.81147
       1020.5000  1.23396e-13      4.45214
       1020.6000  1.23396e-13      4.45090
       1020.7000  1.23396e-13      4.45090
       1020.8000  1.23396e-13      4.44967
       1020.9000  1.23396e-13      4.44967
       1021.0000  1.23396e-13      4.44967
       1021.1000  1.23396e-13      4.44967
       1021.2000  1.23396e-13      4.44967
       1021.3000  1.22479e-13      4.41661
       1021.4000  1.22479e-13      4.41661
       1021.5000  1.08438e-13      3.91029
       1021.6000  1.08438e-13      3.91029
       1021.7000  1.08438e-13      3.91029
       1021.8000  1.08438e-13      3.91137
       1021.9000  1.08438e-13      3.91137
       1022.0000  1.08438e-13      3.91246
       1022.1000  1.08438e-13      3.91246
       1022.2000  1.08438e-13      3.91354
       1022.3000  1.08438e-13      3.91463
       1022.4000  1.08438e-13      3.91463
       1022.5000  1.08560e-13      3.92011
       1022.6000  1.08560e-13      3.92120
       1022.7000  1.08560e-13      3.92228
       1022.8000  1.08560e-13      3.92337
       1022.9000  1.08560e-13      3.92445
       1023.0000  1.08560e-13      3.92554
       1023.1000  1.08560e-13      3.92771
       1023.2000  1.08560e-13      3.92880
       1023.3000  1.08560e-13      3.92988
       1023.4000  1.08560e-13      3.93205
       1023.5000  1.37883e-13      4.99550
       1023.6000  1.37883e-13      4.99826
       1023.7000  1.37883e-13      4.99964
       1023.8000  1.37018e-13      4.97101
       1023.9000  1.37018e-13      4.97375
       1024.0000  1.37018e-13      4.97649
       1024.1000  1.37018e-13      4.97649
       1024.2000  1.37018e-13      4.97512
       1024.3000  1.37018e-13      4.97512
       1024.4000  1.37018e-13      4.97512
       1024.5000  1.32262e-13      4.80244
       1024.6000  1.32262e-13      4.80111
       1024.7000  1.32262e-13      4.80111
       1024.8000  1.32262e-13      4.80111
       1024.9000  1.32262e-13      4.79979
       1025.0000  1.32262e-13      4.79979
       1025.1000  1.32262e-13      4.79979
       1025.2000  1.32262e-13      4.79847
       1025.3000  1.32262e-13      4.79847
       1025.4000  1.32262e-13      4.79847
       1025.5000  1.17584e-13      4.26478
       1025.6000  1.17584e-13      4.26478
       1025.7000  1.17584e-13      4.26361
       1025.8000  1.17584e-13      4.26361
       1025.9000  1.17584e-13      4.26243
       1026.0000  1.17584e-13      4.26243
       1026.1000  1.17584e-13      4.26243
       1026.2000  1.17584e-13      4.26126
       1026.3000  1.16851e-13      4.23468
       1026.4000  1.16851e-13      4.23351
       1026.5000  9.25456e-14      3.35293
       1026.6000  9.25456e-14      3.35200
       1026.7000  9.25456e-14      3.35107
       1026.8000  9.25456e-14      3.35107
       1026.9000  9.25456e-14      3.35015
       1027.0000  9.25456e-14      3.35015
       1027.1000  9.25456e-14      3.34922
       1027.2000  9.25456e-14      3.34830
       1027.3000  9.25456e-14      3.34830
       1027.4000  9.25456e-14      3.34737
       1027.5000  1.01173e-13      3.65842
       1027.6000  1.01173e-13      3.65842
       1027.7000  1.01173e-13      3.65741
       1027.8000  1.01173e-13      3.65639
       1027.9000  1.01173e-13      3.65538
       1028.0000  1.01173e-13      3.65437
       1028.1000  1.01173e-13      3.65437
       1028.2000  1.01173e-13      3.65336
       1028.3000  1.01173e-13      3.65235
       1028.4000  1.01173e-13      3.65134
       1028.5000  1.05811e-13      3.81767
       1028.6000  1.05811e-13      3.81661
       1028.7000  1.05811e-13      3.81556
       1028.8000  1.04904e-13      3.78179
       1028.9000  1.04904e-13      3.78074
       1029.0000  1.04904e-13      3.77969
       1029.1000  1.04904e-13      3.77864
       1029.2000  1.04904e-13      3.77759
       1029.3000  1.04904e-13      3.77654
       1029.4000  1.04904e-13      3.77549
       1029.5000  1.02421e-13      3.68509
       1029.6000  1.02421e-13      3.68407
       1029.7000  1.02421e-13      3.68304
       1029.8000  1.02421e-13      3.68202
       1029.9000  1.02421e-13      3.68100
       1030.0000  1.02421e-13      3.67895
       1030.1000  1.02421e-13      3.67997
       1030.2000  1.02421e-13      3.67997
       1030.3000  1.02421e-13      3.67997
       1030.4000  1.02421e-13      3.67997
       1030.5000  1.08193e-13      3.88736
       1030.6000  1.08193e-13      3.88736
       1030.7000  1.08193e-13      3.88628
       1030.8000  1.08193e-13      3.88628
       1030.9000  1.08193e-13      3.88628
       1031.0000  1.08193e-13      3.88519
       1031.1000  1.08193e-13      3.88519
       1031.2000  1.08193e-13      3.88411
       1031.3000  1.06720e-13      3.83126
       1031.4000  1.06720e-13      3.83020
       1031.5000  8.51517e-14      3.05524
       1031.6000  8.51517e-14      3.05439
       1031.7000  8.51517e-14      3.05354
       1031.8000  8.51517e-14      3.05269
       1031.9000  8.51517e-14      3.05184
       1032.0000  8.51517e-14      3.05099
       1032.1000  8.51517e-14      3.04843
       1032.2000  8.51517e-14      3.04503
       1032.3000  8.51517e-14      3.04247
       1032.4000  8.51517e-14      3.04077
       1032.5000  1.06977e-13      3.81694
       1032.6000  1.06977e-13      3.81373
       1032.7000  1.06977e-13      3.81160
       1032.8000  1.06977e-13      3.80839
       1032.9000  1.06977e-13      3.80625
       1033.0000  1.06977e-13      3.80411
       1033.1000  1.06977e-13      3.80197
       1033.2000  1.06977e-13      3.80090
       1033.3000  1.06977e-13      3.79876
       1033.4000  1.06977e-13      3.79769
       1033.5000  1.01956e-13      3.61740
       1033.6000  1.01956e-13      3.61638
       1033.7000  1.01956e-13      3.61536
       1033.8000  1.00015e-13      3.54554
       1033.9000  1.00015e-13      3.54554
       1034.0000  1.00015e-13      3.54454
       1034.1000  1.00015e-13      3.54454
       1034.2000  1.00015e-13      3.54354
       1034.3000  1.00015e-13      3.54354
       1034.4000  1.00015e-13      3.54354
       1034.5000  8.88115e-14      3.14659
       1034.6000  8.88115e-14      3.14748
       1034.7000  8.88115e-14      3.14748
       1034.8000  8.88115e-14      3.14837
       1034.9000  8.88115e-14      3.14837
       1035.0000  8.88115e-14      3.14926
       1035.1000  8.88115e-14      3.15014
       1035.2000  8.88115e-14      3.15103
       1035.3000  8.88115e-14      3.15281
       1035.4000  8.88115e-14      3.15370
       1035.5000  7.26592e-14      2.58158
       1035.6000  7.26592e-14      2.58304
       1035.7000  7.26592e-14      2.58376
       1035.8000  7.26592e-14      2.58522
       1035.9000  7.26592e-14      2.58740
       1036.0000  7.26592e-14      2.58885
       1036.1000  7.26592e-14      2.58740
       1036.2000  7.26592e-14      2.58594
       1036.3000  7.09626e-14      2.52414
       1036.4000  7.09626e-14      2.52272
       1036.5000  6.34117e-14      2.25302
       1036.6000  6.34117e-14      2.25175
       1036.7000  6.34117e-14      2.25112
       1036.8000  6.34117e-14      2.24985
       1036.9000  6.34117e-14      2.24858
       1037.0000  6.34117e-14      2.24795
       1037.1000  6.34117e-14      2.24731
       1037.2000  6.34117e-14      2.24604
       1037.3000  6.34117e-14      2.24541
       1037.4000  6.34117e-14      2.24477
       1037.5000  7.20458e-14      2.54970
       1037.6000  7.20458e-14      2.54898
       1037.7000  7.20458e-14      2.54826
       1037.8000  7.20458e-14      2.54754
       1037.9000  7.20458e-14      2.54682
       1038.0000  7.20458e-14      2.54610
       1038.1000  7.20458e-14      2.54610
       1038.2000  7.20458e-14      2.54610
       1038.3000  7.20458e-14      2.54682
       1038.4000  7.20458e-14      2.54682
       1038.5000  8.80962e-14      3.11420
       1038.6000  8.80962e-14      3.11420
       1038.7000  8.80962e-14      3.11420
       1038.8000  8.58041e-14      3.03317
       1038.9000  8.58041e-14      3.03317
       1039.0000  8.58041e-14      3.03317
       1039.1000  8.58041e-14      3.03317
       1039.2000  8.58041e-14      3.03317
       1039.3000  8.58041e-14      3.03317
       1039.4000  8.58041e-14      3.03317
       1039.5000  6.79936e-14      2.40357
       1039.6000  6.79936e-14      2.40357
       1039.7000  6.79936e-14      2.40357
       1039.8000  6.79936e-14      2.40357
       1039.9000  6.79936e-14      2.40357
       1040.0000  6.79936e-14      2.40357
       1040.1000  6.79936e-14      2.40357
       1040.2000  6.79936e-14      2.40357
       1040.3000  6.79936e-14      2.40357
       1040.4000  6.79936e-14      2.40357
       1040.5000  6.10444e-14      2.15792
       1040.6000  6.10444e-14      2.15792
       1040.7000  6.10444e-14      2.15792
       1040.8000  6.10444e-14      2.15792
       1040.9000  6.10444e-14      2.15792
       1041.0000  6.10444e-14      2.15792
       1041.1000  6.10444e-14      2.15792
       1041.2000  6.10444e-14      2.15792
       1041.3000  5.92960e-14      2.09612
       1041.4000  5.92960e-14      2.09612
       1041.5000  5.20073e-14      1.83846
       1041.6000  5.20073e-14      1.83846
       1041.7000  5.20073e-14      1.83846
       1041.8000  5.20073e-14      1.83794
       1041.9000  5.20073e-14      1.83794
       1042.0000  5.20073e-14      1.83794
       1042.1000  5.20073e-14      1.83846
       1042.2000  5.20073e-14      1.83846
       1042.3000  5.20073e-14      1.83898
       1042.4000  5.20073e-14      1.83898
       1042.5000  3.38478e-14      1.19686
       1042.6000  3.38478e-14      1.19686
       1042.7000  3.38478e-14      1.19686
       1042.8000  3.38478e-14      1.19652
       1042.9000  3.38478e-14      1.19652
       1043.0000  3.38478e-14      1.19652
       1043.1000  3.38478e-14      1.19618
       1043.2000  3.38478e-14      1.19584
       1043.3000  3.38478e-14      1.19584
       1043.4000  3.38478e-14      1.19550
       1043.5000  6.50215e-14      2.29591
       1043.6000  6.50215e-14      2.29526
       1043.7000  6.50215e-14      2.29461
       1043.8000  6.31616e-14      2.22771
       1043.9000  6.31616e-14      2.22708
       1044.0000  6.31616e-14      2.22581
       1044.1000  6.31616e-14      2.22329
       1044.2000  6.31616e-14      2.22013
       1044.3000  6.31616e-14      2.21760
       1044.4000  6.31616e-14      2.21508
       1044.5000  4.79779e-14      1.68067
       1044.6000  4.79779e-14      1.67923
       1044.7000  4.79779e-14      1.67731
       1044.8000  4.79779e-14      1.67587
       1044.9000  4.79779e-14      1.67443
       1045.0000  4.79779e-14      1.67299
       1045.1000  4.79779e-14      1.67203
       1045.2000  4.79779e-14      1.67059
       1045.3000  4.79779e-14      1.66963
       1045.4000  4.79779e-14      1.66867
       1045.5000  3.74424e-14      1.30187
       1045.6000  3.74424e-14      1.30112
       1045.7000  3.74424e-14      1.30075
       1045.8000  3.74424e-14      1.30037
       1045.9000  3.74424e-14      1.30000
       1046.0000  3.74424e-14      1.29962
       1046.1000  3.74424e-14      1.29962
       1046.2000  3.74424e-14      1.29925
       1046.3000  3.63795e-14      1.26237
       1046.4000  3.63795e-14      1.26237
       1046.5000  3.23483e-14      1.12281
       1046.6000  3.23483e-14      1.12281
       1046.7000  3.23483e-14      1.12313
       1046.8000  3.23483e-14      1.12346
       1046.9000  3.23483e-14      1.12378
       1047.0000  3.23483e-14      1.12443
       1047.1000  3.23483e-14      1.12475
       1047.2000  3.23483e-14      1.12540
       1047.3000  3.23483e-14      1.12605
       1047.4000  3.23483e-14      1.12669
       1047.5000  3.12518e-14      1.08944
       1047.6000  3.12518e-14      1.09006
       1047.7000  3.12518e-14      1.09100
       1047.8000  3.12518e-14      1.09194
       1047.9000  3.12518e-14      1.09287
       1048.0000  3.12518e-14      1.09412
       1048.1000  3.12518e-14      1.09412
       1048.2000  3.12518e-14      1.09412
       1048.3000  3.12518e-14      1.09412
       1048.4000  3.12518e-14      1.09381
       1048.5000  3.86837e-14      1.35393
       1048.6000  3.86837e-14      1.35393
       1048.7000  3.86837e-14      1.35393
       1048.8000  3.76720e-14      1.31852
       1048.9000  3.76720e-14      1.31852
       1049.0000  3.76720e-14      1.31814
       1049.1000  3.76720e-14      1.31814
       1049.2000  3.76720e-14      1.31814
       1049.3000  3.76720e-14      1.31777
       1049.4000  3.76720e-14      1.31777
       1049.5000  3.50526e-14      1.22614
       1049.6000  3.50526e-14      1.22579
       1049.7000  3.50526e-14      1.22579
       1049.8000  3.50526e-14      1.22579
       1049.9000  3.50526e-14      1.22544
       1050.0000  3.50526e-14      1.22544
       1050.1000  3.50526e-14      1.22509
       1050.2000  3.50526e-14      1.22509
       1050.3000  3.50526e-14      1.22474
       1050.4000  3.50526e-14      1.22439
       1050.5000  2.03829e-14     0.711974
       1050.6000  2.03829e-14     0.711770
       1050.7000  2.03829e-14     0.711770
       1050.8000  2.03829e-14     0.711566
       1050.9000  2.03829e-14     0.711362
       1051.0000  2.03829e-14     0.711362
       1051.1000  2.03829e-14     0.711159
       1051.2000  2.03829e-14     0.711159
       1051.3000  1.99268e-14     0.695046
       1051.4000  1.99268e-14     0.694846
       1051.5000  1.82326e-14     0.635770
       1051.6000  1.82326e-14     0.635587
       1051.7000  1.82326e-14     0.635405
       1051.8000  1.82326e-14     0.635405
       1051.9000  1.82326e-14     0.635223
       1052.0000  1.82326e-14     0.635223
       1052.1000  1.82326e-14     0.635040
       1052.2000  1.82326e-14     0.634858
       1052.3000  1.82326e-14     0.634858
       1052.4000  1.82326e-14     0.634676
       1052.5000  1.70167e-14     0.592181
       1052.6000  1.70167e-14     0.592181
       1052.7000  1.70167e-14     0.592011
       1052.8000  1.70167e-14     0.591841
       1052.9000  1.70167e-14     0.591841
       1053.0000  1.70167e-14     0.591671
       1053.1000  1.70167e-14     0.591671
       1053.2000  1.70167e-14     0.591501
       1053.3000  1.70167e-14     0.591330
       1053.4000  1.70167e-14     0.591330
       1053.5000  1.54398e-14     0.536378
       1053.6000  1.54398e-14     0.536223
       1053.7000  1.54398e-14     0.536223
       1053.8000  1.51514e-14     0.526056
       1053.9000  1.51514e-14     0.525904
       1054.0000  1.51514e-14     0.525904
       1054.1000  1.51514e-14     0.526207
       1054.2000  1.51514e-14     0.526359
       1054.3000  1.51514e-14     0.526662
       1054.4000  1.51514e-14     0.526965
       1054.5000  9.05173e-15     0.314910
       1054.6000  9.05173e-15     0.315000
       1054.7000  9.05173e-15     0.315091
       1054.8000  9.05173e-15     0.315181
       1054.9000  9.05173e-15     0.315272
       1055.0000  9.05173e-15     0.315362
       1055.1000  9.05173e-15     0.315362
       1055.2000  9.05173e-15     0.315362
       1055.3000  9.05173e-15     0.315453
       1055.4000  9.05173e-15     0.315453
       1055.5000  9.85498e-15     0.343348
       1055.6000  9.85498e-15     0.343348
       1055.7000  9.85498e-15     0.343348
       1055.8000  9.85498e-15     0.343249
       1055.9000  9.85498e-15     0.343150
       1056.0000  9.85498e-15     0.343052
       1056.1000  9.85498e-15     0.342756
       1056.2000  9.85498e-15     0.342461
       1056.3000  9.67525e-15     0.335925
       1056.4000  9.67525e-15     0.335538
       1056.5000  4.25513e-15     0.147440
       1056.6000  4.25513e-15     0.147355
       1056.7000  4.25513e-15     0.147228
       1056.8000  4.25513e-15     0.147100
       1056.9000  4.25513e-15     0.146972
       1057.0000  4.25513e-15     0.146887
